timestamp,accel_x,accel_y,accel_z
1.72949246153276e+18,-0.08259055763483047,0.004126556217670441,-9.825587272644043
1.7294924615387602e+18,0.046106938272714615,-0.03285224363207817,-9.868263244628906
1.7294924615477604e+18,-0.0195463877171278,0.01247046235948801,-9.765775680541992
1.7294924615537605e+18,0.06603959202766418,0.013204263523221016,-9.824284553527832
1.7294924615627607e+18,-0.007428106386214495,-0.02217629738152027,-9.796502113342285
1.7294924615687608e+18,-0.011906316503882408,-0.003369890619069338,-9.850485801696777
1.729492461577761e+18,-0.06430980563163757,-0.03245186805725098,-9.802396774291992
1.7294924615837612e+18,0.06360983848571777,-0.004191947635263205,-9.785347938537598
1.7294924615927613e+18,-0.05170910432934761,-0.037460751831531525,-9.804071426391602
1.7294924616017615e+18,-0.003936112392693758,-0.01903233304619789,-9.824052810668945
1.7294924616077617e+18,0.017344841733574867,-0.07323084771633148,-9.855642318725586
1.7294924616167619e+18,-0.026733629405498505,0.0338643379509449,-9.82898998260498
1.729492461625762e+18,0.04051647707819939,-0.015872905030846596,-9.734151840209961
1.7294924616317622e+18,0.028564848005771637,-0.061486389487981796,-9.823108673095703
1.7294924616407624e+18,-0.03378897160291672,-0.02034822851419449,-9.744943618774414
1.7294924616497626e+18,-0.003477547550573945,-0.03405872359871864,-9.78703498840332
1.7294924616557627e+18,-0.028122590854763985,-0.009791966527700424,-9.78717041015625
1.729492461664763e+18,0.0033011576160788536,0.02428174950182438,-9.865710258483887
1.729492461670763e+18,-0.02327059954404831,-0.02060338482260704,-9.786198616027832
1.7294924616797632e+18,-0.09350310266017914,-0.04462013766169548,-9.79874324798584
1.7294924616887634e+18,-0.0021386987064033747,0.012346158735454082,-9.82416820526123
1.7294924616947635e+18,-0.011708823032677174,-0.08495142310857773,-9.846734046936035
1.7294924617037637e+18,-0.011890568770468235,0.02474861592054367,-9.83836841583252
1.729492461712764e+18,0.08107782155275345,0.036688681691884995,-9.764856338500977
1.729492461718764e+18,-0.005047938320785761,0.0015755719505250454,-9.823686599731445
1.7294924617247642e+18,-0.03795287385582924,0.052584197372198105,-9.776764869689941
1.7294924617337644e+18,0.00516359182074666,-0.0034059800673276186,-9.809480667114258
1.7294924617397645e+18,0.07279478758573532,-0.008299294859170914,-9.855586051940918
1.7294924617487647e+18,-0.0687861517071724,0.021759111434221268,-9.790122032165527
1.7294924617547648e+18,0.014759779907763004,0.02124769054353237,-9.836591720581055
1.729492461763765e+18,0.007758147083222866,0.00844435952603817,-9.845013618469238
1.7294924617727652e+18,0.010074930265545845,-0.02921709604561329,-9.860660552978516
1.7294924617787653e+18,-0.006909816060215235,-0.03086249530315399,-9.7815580368042
1.7294924617877655e+18,0.1278052181005478,0.04814596101641655,-9.793031692504883
1.7294924617967657e+18,-0.05110318213701248,0.0009868170600384474,-9.864057540893555
1.729492461805766e+18,0.052800070494413376,-0.01628335937857628,-9.805024147033691
1.729492461814766e+18,0.05313708260655403,0.0511338971555233,-9.860349655151367
1.7294924618237663e+18,0.02235470525920391,0.011661727912724018,-9.732115745544434
1.7294924618297664e+18,-0.006498397793620825,-0.02402608096599579,-9.807428359985352
1.7294924618387666e+18,-0.0005661678151227534,0.09151240438222885,-9.871676445007324
1.7294924618447667e+18,-0.005818615667521954,0.05860505625605583,-9.712976455688477
1.729492461853767e+18,-0.016038844361901283,0.01785278506577015,-9.937302589416504
1.729492461862767e+18,0.017740733921527863,-0.02901029773056507,-9.773262977600098
1.7294924618717673e+18,-0.0387982577085495,0.0767071396112442,-9.70688533782959
1.7294924618807675e+18,-0.0057219346053898335,-0.006003323011100292,-9.889427185058594
1.7294924618867676e+18,0.0005296571180224419,0.045181095600128174,-9.852863311767578
1.7294924618957678e+18,0.07093561440706253,0.03714408725500107,-9.905044555664062
1.729492461901768e+18,0.007405358366668224,-0.07408543676137924,-9.869613647460938
1.729492461910768e+18,-0.004474882036447525,-0.006134526338428259,-9.810430526733398
1.7294924619167683e+18,0.016147209331393242,-0.020116537809371948,-9.845948219299316
1.7294924619287685e+18,0.0013552738819271326,-0.05926903709769249,-9.749042510986328
1.7294924619347686e+18,0.023165088146924973,0.0012182063655927777,-9.822465896606445
1.7294924619437688e+18,0.006877159234136343,-0.02858477458357811,-9.795148849487305
1.729492461949769e+18,-0.018172726035118103,-0.012218035757541656,-9.839666366577148
1.7294924619587692e+18,-0.008872759528458118,-0.030102211982011795,-9.760590553283691
1.7294924619677693e+18,0.05043695122003555,0.054079268127679825,-9.88765811920166
1.7294924619737695e+18,-0.03358175605535507,-0.010520681738853455,-9.776556015014648
1.7294924619827697e+18,0.01874753087759018,0.014119117520749569,-9.812471389770508
1.7294924619887698e+18,-0.018894905224442482,0.028998155146837234,-9.82729721069336
1.72949246199777e+18,-0.00411633774638176,-0.05686419457197189,-9.80694580078125
1.72949246200377e+18,-0.0885617733001709,-0.008820799179375172,-9.87325668334961
1.7294924620127703e+18,0.03487890213727951,0.032727207988500595,-9.702969551086426
1.7294924620187704e+18,0.007552801165729761,-0.0287458673119545,-9.819323539733887
1.7294924620277706e+18,-0.019987143576145172,0.0116634052246809,-9.763989448547363
1.729492462042771e+18,-0.023711273446679115,-0.056938786059617996,-9.810874938964844
1.7294924620547712e+18,0.09280295670032501,0.03432200849056244,-9.789397239685059
1.7294924620637714e+18,0.11650494486093521,0.05472986772656441,-9.826892852783203
1.7294924620727716e+18,0.013739591464400291,-0.022645851597189903,-9.790427207946777
1.7294924620787717e+18,-0.09835845232009888,0.02569580078125,-9.822940826416016
1.729492462087772e+18,-0.02989976480603218,-0.01584307663142681,-9.88746452331543
1.729492462093772e+18,0.04687141627073288,0.045438963919878006,-9.805922508239746
1.7294924621027722e+18,0.015915686264634132,0.009997766464948654,-9.79063606262207
1.7294924621117724e+18,-0.016620976850390434,0.028181230649352074,-9.817913055419922
1.7294924621177725e+18,0.013807124458253384,-0.01220657117664814,-9.816719055175781
1.7294924621267727e+18,-0.06622353941202164,-0.007604526821523905,-9.792956352233887
1.7294924621327729e+18,0.10526777803897858,0.02951337769627571,-9.878067970275879
1.729492462141773e+18,0.031137580052018166,-0.004996153060346842,-9.821151733398438
1.7294924621507732e+18,0.02332012914121151,0.024556424468755722,-9.805989265441895
1.7294924621567734e+18,0.038751326501369476,0.062041301280260086,-9.758785247802734
1.7294924621657736e+18,-0.007235557772219181,-0.08056344836950302,-9.858199119567871
1.7294924621717737e+18,-0.032436054199934006,-0.06569057703018188,-9.804208755493164
1.729492462180774e+18,-0.05622922256588936,0.048085011541843414,-9.812176704406738
1.729492462189774e+18,0.049454569816589355,0.08356025815010071,-9.880708694458008
1.7294924621957742e+18,-0.05434215068817139,-0.01026915479451418,-9.777181625366211
1.7294924622047744e+18,0.009143411181867123,0.03152226284146309,-9.813722610473633
1.7294924622137746e+18,0.07079753279685974,-0.040296271443367004,-9.814188003540039
1.7294924622197747e+18,-0.003133464138954878,0.1112426146864891,-9.856698036193848
1.729492462228775e+18,0.10131669789552689,-0.06979026645421982,-9.892821311950684
1.729492462234775e+18,-0.0023368506226688623,0.04178917407989502,-9.790915489196777
1.7294924622437752e+18,0.01442314125597477,-0.06883467733860016,-9.802409172058105
1.7294924622527754e+18,0.006232816725969315,0.04167016223073006,-9.786237716674805
1.7294924622587756e+18,-0.05455755442380905,-0.08561263978481293,-9.79392147064209
1.7294924622677757e+18,0.0642525777220726,0.021184466779232025,-9.798047065734863
1.7294924622737759e+18,-0.024935610592365265,-0.0027009090408682823,-9.85577392578125
1.729492462282776e+18,0.017460225149989128,0.042449500411748886,-9.847522735595703
1.7294924622887762e+18,0.03699703514575958,-0.03548945114016533,-9.787565231323242
1.7294924622977764e+18,-0.006604512222111225,-0.017721354961395264,-9.809432029724121
1.7294924623037765e+18,-0.0019839222077280283,0.054076459258794785,-9.800240516662598
1.7294924623127767e+18,-0.017621422186493874,0.035767268389463425,-9.820846557617188
1.729492462321777e+18,-0.012211714871227741,0.026310911402106285,-9.791354179382324
1.729492462327777e+18,0.041107650846242905,0.03178811073303223,-9.889060020446777
1.7294924623367772e+18,-0.002479685703292489,0.019328095018863678,-9.844592094421387
1.7294924623427773e+18,0.012581021524965763,-0.0059759896248579025,-9.818076133728027
1.7294924623517775e+18,0.016068123281002045,-0.04895476624369621,-9.822691917419434
1.7294924623607777e+18,-0.033902883529663086,-0.015671227127313614,-9.810285568237305
1.7294924623667779e+18,0.10527697205543518,-0.0110490582883358,-9.786417961120605
1.729492462375778e+18,-0.04677584767341614,-0.04660949856042862,-9.84844970703125
1.7294924623817782e+18,-0.035150568932294846,-0.02765757590532303,-9.80247688293457
1.7294924623907784e+18,-0.09345395117998123,-0.014966953545808792,-9.773058891296387
1.7294924623997786e+18,-0.05235252529382706,0.0011624403996393085,-9.787384033203125
1.7294924624057787e+18,0.02104446291923523,0.04778224974870682,-9.78525161743164
1.729492462414779e+18,0.01653694361448288,0.019534744322299957,-9.867140769958496
1.729492462420779e+18,-0.007452423684298992,-0.08962156623601913,-9.7904634475708
1.7294924624297792e+18,0.021334564313292503,-0.04897462576627731,-9.833091735839844
1.7294924624387794e+18,0.027059853076934814,0.07985333353281021,-9.836709022521973
1.7294924624447795e+18,-0.01652030646800995,-0.08186738193035126,-9.85488224029541
1.7294924624537797e+18,-0.08992376178503036,-0.045202020555734634,-9.828716278076172
1.72949246246278e+18,-0.06625140458345413,-0.013505452312529087,-9.787434577941895
1.72949246246878e+18,0.026605403050780296,-0.006341347470879555,-9.867015838623047
1.7294924624777802e+18,-0.028084224089980125,0.014717182144522667,-9.734138488769531
1.7294924624837804e+18,-0.013933496549725533,-0.009643676690757275,-9.857878684997559
1.7294924624927805e+18,-0.002725487807765603,0.03976219519972801,-9.79730224609375
1.7294924624987807e+18,-0.015262210741639137,0.015270713716745377,-9.740095138549805
1.7294924625077809e+18,0.006203101947903633,-0.034407369792461395,-9.742640495300293
1.729492462516781e+18,0.017435843124985695,0.006675147917121649,-9.796902656555176
1.7294924625257812e+18,0.011088671162724495,0.03424398973584175,-9.759698867797852
1.7294924625317814e+18,-0.047694362699985504,0.03626404330134392,-9.851987838745117
1.7294924625467817e+18,-0.009368309751152992,-0.009895915165543556,-9.820836067199707
1.729492462555782e+18,0.055988963693380356,-0.03326566144824028,-9.93696403503418
1.729492462564782e+18,0.03770466521382332,0.000561196415219456,-9.777599334716797
1.7294924625737823e+18,-0.07106132805347443,0.018745139241218567,-9.811834335327148
1.7294924625797824e+18,0.01294705644249916,0.019487909972667694,-9.865875244140625
1.7294924625887826e+18,-0.010030737146735191,-0.0236794576048851,-9.80940055847168
1.7294924625977828e+18,0.007956496439874172,0.01259315013885498,-9.688004493713379
1.729492462606783e+18,-0.00385453412309289,0.058863211423158646,-9.884101867675781
1.729492462612783e+18,-0.011069798842072487,0.00316308974288404,-9.860179901123047
1.7294924626217833e+18,0.01433482114225626,0.007532906718552113,-9.832261085510254
1.7294924626307835e+18,0.0004980122903361917,0.007346705533564091,-9.810104370117188
1.7294924626397837e+18,0.010016289539635181,0.05011792108416557,-9.752572059631348
1.7294924626457838e+18,0.02316882275044918,0.0369408056139946,-9.774018287658691
1.729492462654784e+18,-0.07738681882619858,-0.013839327730238438,-9.861699104309082
1.729492462660784e+18,0.04039376974105835,0.0009814840741455555,-9.777524948120117
1.7294924626697843e+18,0.026247626170516014,0.002063067862764001,-9.848217010498047
1.7294924626787845e+18,0.0015438708942383528,0.019211014732718468,-9.81986141204834
1.7294924626877847e+18,-0.014909381046891212,-0.012404520064592361,-9.792120933532715
1.7294924626937848e+18,0.037299130111932755,0.0184098482131958,-9.8900146484375
1.729492462702785e+18,0.007367659825831652,-0.011533129028975964,-9.842674255371094
1.7294924627087852e+18,-0.019117267802357674,-0.013173573650419712,-9.779780387878418
1.7294924627177853e+18,-0.05497443303465843,-0.06546302884817123,-9.905104637145996
1.7294924627267855e+18,-0.03933970257639885,-0.013196758925914764,-9.826675415039062
1.7294924627327857e+18,-0.07896995544433594,0.05859709158539772,-9.739080429077148
1.7294924627417859e+18,0.033226970583200455,-0.000176708577782847,-9.798996925354004
1.729492462747786e+18,-0.08963614702224731,0.022341616451740265,-9.726627349853516
1.7294924627567862e+18,0.01964648999273777,0.055163729935884476,-9.834251403808594
1.7294924627627863e+18,0.020224111154675484,0.04283945634961128,-9.779220581054688
1.7294924627717865e+18,0.015158680267632008,0.037279073148965836,-9.787744522094727
1.7294924627807867e+18,0.011369685642421246,0.041758280247449875,-9.824173927307129
1.7294924627867868e+18,-0.01744762249290943,-0.008458464406430721,-9.81218433380127
1.729492462795787e+18,-0.013534178957343102,0.02459528297185898,-9.80216121673584
1.7294924628017871e+18,-0.003518203739076853,-0.08127833902835846,-9.834484100341797
1.7294924628107873e+18,0.024103708565235138,0.027745600789785385,-9.748063087463379
1.7294924628167875e+18,0.0034247320145368576,-0.04423149302601814,-9.837090492248535
1.7294924628287877e+18,-0.0012080316664651036,-0.004747236147522926,-9.6738920211792
1.7294924628347878e+18,-0.0196418147534132,-0.007591843139380217,-9.866048812866211
1.729492462843788e+18,-0.002736202208325267,-0.04245594143867493,-9.853995323181152
1.7294924628527882e+18,0.004955980461090803,0.02093236707150936,-9.865148544311523
1.7294924628587884e+18,-0.0052751521579921246,0.03988746553659439,-9.832036018371582
1.7294924628677885e+18,0.07209882140159607,0.05672885850071907,-9.794473648071289
1.7294924628737887e+18,0.006374312564730644,0.014168597757816315,-9.823115348815918
1.7294924628827889e+18,0.004237080924212933,-0.024646082893013954,-9.76023006439209
1.729492462888789e+18,-0.03312459960579872,0.010195255279541016,-9.807317733764648
1.7294924628977892e+18,-0.0404898039996624,0.018790658563375473,-9.78537368774414
1.7294924629067894e+18,-0.006530699785798788,-0.00668927701190114,-9.815338134765625
1.7294924629127895e+18,0.031933996826410294,0.04203057289123535,-9.757072448730469
1.7294924629217897e+18,0.008127276785671711,0.026349492371082306,-9.781002044677734
1.7294924629277898e+18,-0.05457138642668724,-0.001385255018249154,-9.795625686645508
1.72949246293679e+18,-0.06545409560203552,-0.01286292914301157,-9.85416316986084
1.7294924629427901e+18,0.008676924742758274,0.002985152183100581,-9.821173667907715
1.7294924629517903e+18,-0.06421612203121185,-0.053105369210243225,-9.773176193237305
1.7294924629577905e+18,0.07921501249074936,-0.011689659208059311,-9.789297103881836
1.7294924629667907e+18,0.07747658342123032,-0.0204811729490757,-9.840149879455566
1.7294924629727908e+18,0.02585531771183014,0.04389965161681175,-9.860877990722656
1.729492462981791e+18,-0.015295040793716908,0.060312721878290176,-9.840683937072754
1.7294924629907912e+18,0.009109802544116974,0.02190973609685898,-9.74854564666748
1.7294924629967913e+18,0.04933551698923111,0.07503195106983185,-9.755721092224121
1.7294924630057915e+18,-0.014895415864884853,0.08271287381649017,-9.846809387207031
1.7294924630147917e+18,-0.028888747096061707,-0.009188228286802769,-9.884200096130371
1.7294924630237919e+18,0.009243730455636978,-0.05555937439203262,-9.840425491333008
1.7294924630357921e+18,-0.04615038260817528,-0.03898727148771286,-9.748537063598633
1.7294924630447923e+18,0.06696291267871857,-0.02644426003098488,-9.831764221191406
1.7294924630507924e+18,0.038947682827711105,-0.0448632538318634,-9.912213325500488
1.7294924630597926e+18,-0.019440792500972748,-0.033203866332769394,-9.811062812805176
1.7294924630657928e+18,-0.021869510412216187,-0.03078577294945717,-9.795804977416992
1.729492463074793e+18,0.06870602071285248,-0.04096253216266632,-9.81384563446045
1.7294924630837932e+18,0.0636255219578743,0.09721915423870087,-9.822188377380371
1.7294924630927933e+18,0.03220997378230095,-0.00789199210703373,-9.752203941345215
1.7294924630987935e+18,0.07333022356033325,-0.012503249570727348,-9.788439750671387
1.7294924631077937e+18,0.011882140301167965,-0.04731068015098572,-9.817636489868164
1.7294924631167939e+18,-0.029792068526148796,0.022417385131120682,-9.818615913391113
1.729492463122794e+18,0.012655084952712059,-0.0005959126283414662,-9.752705574035645
1.7294924631317942e+18,0.017520219087600708,0.026065466925501823,-9.8075532913208
1.7294924631377943e+18,-0.059104640036821365,0.014972950331866741,-9.842598915100098
1.7294924631467945e+18,0.07574725896120071,0.01771702617406845,-9.814620018005371
1.7294924631527946e+18,-0.025358226150274277,-0.004274951759725809,-9.77651309967041
1.7294924631617948e+18,-0.02017963118851185,-0.06761404871940613,-9.798726081848145
1.729492463170795e+18,-0.0137394480407238,-0.0303037092089653,-9.785490989685059
1.7294924631797952e+18,-0.03352033719420433,0.10275433957576752,-9.767578125
1.7294924631857953e+18,-0.00042065384332090616,-0.04787951335310936,-9.786015510559082
1.7294924631947955e+18,0.015184741467237473,-0.00843753945082426,-9.878355979919434
1.7294924632007956e+18,-0.022083556279540062,0.05808703973889351,-9.8389253616333
1.7294924632097958e+18,0.03456515818834305,-0.03231393173336983,-9.813998222351074
1.729492463215796e+18,-0.016463983803987503,0.021938513964414597,-9.772887229919434
1.7294924632247962e+18,0.012991562485694885,-0.024946900084614754,-9.848404884338379
1.7294924632307963e+18,-0.005978473462164402,0.008518235757946968,-9.796231269836426
1.7294924632397965e+18,0.010726477019488811,0.029027992859482765,-9.808876991271973
1.7294924632487967e+18,-0.035878926515579224,-0.0032847505062818527,-9.771382331848145
1.729492463260797e+18,-0.026297546923160553,-0.04060692712664604,-9.724689483642578
1.7294924632727972e+18,-0.05752239376306534,0.056804344058036804,-9.824579238891602
1.7294924632787973e+18,0.014256357215344906,-0.015166048891842365,-9.788066864013672
1.7294924632877975e+18,-0.04679253324866295,0.062336064875125885,-9.890408515930176
1.7294924632937976e+18,-0.06091867759823799,0.0644666850566864,-9.785626411437988
1.7294924633027978e+18,-0.1454383283853531,0.04751741886138916,-9.754487991333008
1.729492463308798e+18,0.008109106682240963,-0.03121613711118698,-9.830673217773438
1.7294924633177981e+18,-0.05432723090052605,-0.03291698172688484,-9.790489196777344
1.7294924633267983e+18,0.09061703830957413,0.07265254855155945,-9.846156120300293
1.7294924633357985e+18,0.023545004427433014,0.007476277183741331,-9.877877235412598
1.7294924633417987e+18,-0.043790072202682495,0.007347878068685532,-9.816618919372559
1.7294924633507988e+18,0.04243689030408859,0.04101613909006119,-9.82384967803955
1.729492463359799e+18,-0.011937457136809826,0.001525722909718752,-9.79415512084961
1.7294924633657992e+18,-0.04953669384121895,-0.013573438860476017,-9.803750991821289
1.7294924633747994e+18,-0.10292676091194153,-0.009400550276041031,-9.769287109375
1.7294924633837996e+18,-0.04835769906640053,-0.015802323818206787,-9.840176582336426
1.7294924633927997e+18,0.03697116672992706,0.07020647823810577,-9.797179222106934
1.7294924633988e+18,0.012067538686096668,-0.013045283034443855,-9.875337600708008
1.7294924634078e+18,-0.12506714463233948,0.08237480372190475,-9.825505256652832
1.7294924634168003e+18,0.11007295548915863,-0.05255717784166336,-9.784578323364258
1.7294924634228004e+18,-0.0005817373748868704,0.007826666347682476,-9.861246109008789
1.7294924634318006e+18,-0.05275939032435417,-0.0017165796598419547,-9.82361888885498
1.7294924634408008e+18,-0.05866960808634758,0.13119950890541077,-9.804803848266602
1.729492463449801e+18,-0.040358033031225204,0.0299981702119112,-9.71053409576416
1.729492463455801e+18,-0.03959192335605621,0.04271463677287102,-9.780488014221191
1.7294924634648013e+18,0.031918998807668686,0.05539536476135254,-9.825483322143555
1.7294924634738015e+18,0.02283056639134884,-0.007477397099137306,-9.8370361328125
1.7294924634828017e+18,-0.011992204934358597,-0.0030917555559426546,-9.824755668640137
1.7294924634918019e+18,0.07755498588085175,-0.021101851016283035,-9.8917236328125
1.729492463497802e+18,0.09412900358438492,-0.059850484132766724,-9.792174339294434
1.7294924635068022e+18,-0.0241178460419178,0.05141094699501991,-9.827836990356445
1.7294924635158024e+18,0.028677640482783318,0.014964701607823372,-9.865826606750488
1.7294924635248026e+18,-0.010235825553536415,-0.043821997940540314,-9.79144287109375
1.7294924635338028e+18,0.07887552678585052,-0.04689069837331772,-9.74098014831543
1.729492463542803e+18,0.005398835986852646,0.019189370796084404,-9.843489646911621
1.729492463548803e+18,-0.045520707964897156,0.025314558297395706,-9.836507797241211
1.7294924635578033e+18,-0.027450095862150192,0.042247142642736435,-9.737224578857422
1.7294924635668035e+18,0.06527756154537201,-0.0610232800245285,-9.776952743530273
1.7294924635758036e+18,-0.002388595137745142,0.048904962837696075,-9.772581100463867
1.7294924635818038e+18,-0.0009663526434451342,-0.11433445662260056,-9.808286666870117
1.729492463590804e+18,0.021552996709942818,0.0284523107111454,-9.804224014282227
1.7294924635998042e+18,-0.020998861640691757,0.004835094790905714,-9.78736400604248
1.7294924636058043e+18,0.03484838828444481,-0.012456957250833511,-9.821959495544434
1.7294924636148045e+18,-0.01337474212050438,0.029552960768342018,-9.759565353393555
1.7294924636208046e+18,0.016324197873473167,-0.04809028282761574,-9.86982536315918
1.7294924636298048e+18,0.01911495067179203,-0.019440285861492157,-9.794536590576172
1.729492463638805e+18,-0.055492937564849854,0.040284328162670135,-9.858409881591797
1.7294924636478052e+18,0.11476612091064453,0.03810781612992287,-9.760627746582031
1.7294924636568054e+18,0.030327318236231804,-0.07246342301368713,-9.81594467163086
1.7294924636628055e+18,-0.03836571425199509,-0.044659778475761414,-9.78192138671875
1.7294924636718057e+18,0.05228874087333679,-0.048728641122579575,-9.802168846130371
1.729492463680806e+18,0.0044003319926559925,-0.013604024425148964,-9.781434059143066
1.729492463686806e+18,0.0016240982804447412,-0.04337594658136368,-9.855950355529785
1.7294924636958062e+18,-0.018318472430109978,0.04782962054014206,-9.81702709197998
1.7294924637048064e+18,0.07224611937999725,-0.05701420083642006,-9.825779914855957
1.7294924637108065e+18,-0.03536899387836456,-0.017808126285672188,-9.802047729492188
1.7294924637198067e+18,0.048402100801467896,0.0018432197393849492,-9.706733703613281
1.7294924637258068e+18,-0.0023588654585182667,-0.05004815384745598,-9.824983596801758
1.729492463734807e+18,0.019008327275514603,-0.02536017633974552,-9.851693153381348
1.7294924637438072e+18,-0.028509028255939484,0.033082615584135056,-9.789596557617188
1.7294924637498074e+18,-0.03460204601287842,0.02420635335147381,-9.710439682006836
1.7294924637588076e+18,0.0892707109451294,0.046306923031806946,-9.76741886138916
1.7294924637678077e+18,0.06889615207910538,-0.052448876202106476,-9.764415740966797
1.7294924637738079e+18,-0.02169354073703289,-0.009073191322386265,-9.853514671325684
1.729492463782808e+18,0.01962309330701828,0.016847219318151474,-9.794463157653809
1.7294924637888082e+18,-0.012552602216601372,0.11276862770318985,-9.829834938049316
1.7294924637978084e+18,-0.02637953869998455,-0.021283162757754326,-9.753434181213379
1.7294924638038085e+18,0.09902066737413406,0.054165128618478775,-9.8645601272583
1.7294924638128087e+18,0.06642051786184311,-0.05145041272044182,-9.800115585327148
1.729492463821809e+18,0.050163522362709045,-0.011089056730270386,-9.821049690246582
1.729492463830809e+18,-0.011700579896569252,-0.027590656653046608,-9.854259490966797
1.7294924638368092e+18,-0.028522377833724022,-0.06834955513477325,-9.807459831237793
1.7294924638458094e+18,0.037607669830322266,0.017676932737231255,-9.795342445373535
1.7294924638578097e+18,-0.007109280675649643,0.04747972637414932,-9.849862098693848
1.72949246386981e+18,0.027361683547496796,-0.03933524712920189,-9.831043243408203
1.72949246387581e+18,0.059087544679641724,0.026636622846126556,-9.842340469360352
1.7294924638848102e+18,-0.026457849889993668,0.018103325739502907,-9.795781135559082
1.7294924638938104e+18,-0.018093982711434364,0.03549139201641083,-9.792906761169434
1.7294924638998106e+18,-0.013920321129262447,0.017458800226449966,-9.834904670715332
1.7294924639118108e+18,0.04673720523715019,0.03333576023578644,-9.891169548034668
1.729492463923811e+18,-0.023488067090511322,-0.005043096374720335,-9.836095809936523
1.7294924639328113e+18,-0.000906964938621968,0.026820776984095573,-9.87176513671875
1.7294924639388114e+18,-0.015083561651408672,-0.028781011700630188,-9.841443061828613
1.7294924639508116e+18,-0.02617643028497696,-0.014622235670685768,-9.837591171264648
1.729492463962812e+18,0.005203701555728912,0.10248300433158875,-9.898755073547363
1.7294924639748122e+18,-0.012743609957396984,0.07626252621412277,-9.901260375976562
1.7294924639808123e+18,-0.049238160252571106,0.006039842963218689,-9.951354026794434
1.7294924639898125e+18,-0.06449135392904282,-0.01580868847668171,-9.930869102478027
1.7294924639988127e+18,-0.035928525030612946,0.0011234339326620102,-9.909764289855957
1.7294924640048128e+18,0.06374502182006836,-0.025328872725367546,-9.99518871307373
1.729492464013813e+18,-0.07324939966201782,0.02053404599428177,-10.060018539428711
1.7294924640228132e+18,-0.03306125849485397,0.031633410602808,-10.037580490112305
1.7294924640318134e+18,0.016172446310520172,0.10850434750318527,-10.01119327545166
1.7294924640408136e+18,0.04870964586734772,0.0006435438990592957,-10.028056144714355
1.7294924640468137e+18,0.0132905263453722,-0.022029539570212364,-10.055925369262695
1.729492464055814e+18,-0.03737258166074753,0.07698584347963333,-10.027271270751953
1.729492464064814e+18,-0.0172712504863739,0.007309122011065483,-10.128534317016602
1.7294924640708142e+18,0.02466548979282379,0.056231167167425156,-10.07847785949707
1.7294924640798144e+18,0.027055393904447556,0.043220095336437225,-10.173405647277832
1.7294924640858145e+18,0.019360404461622238,0.032796286046504974,-10.095550537109375
1.7294924640948147e+18,0.0002033575437963009,0.08898301422595978,-10.118523597717285
1.729492464103815e+18,0.05490841343998909,0.052690841257572174,-10.384767532348633
1.729492464109815e+18,0.04500310495495796,-0.00891805812716484,-10.452874183654785
1.7294924641188152e+18,0.0027484027668833733,0.008868015371263027,-10.500680923461914
1.7294924641248154e+18,-0.037018246948719025,0.05050588399171829,-10.566861152648926
1.7294924641338156e+18,-0.006184963509440422,-0.07637915015220642,-10.55817699432373
1.7294924641428157e+18,-0.005652337335050106,-0.013397111557424068,-10.48308277130127
1.729492464148816e+18,0.05747520923614502,-0.09220448136329651,-10.508963584899902
1.729492464157816e+18,-0.0031842275056988,-0.024879682809114456,-10.58638858795166
1.7294924641638162e+18,0.0021729771979153156,0.07279399782419205,-10.53600788116455
1.7294924641728164e+18,0.024388831108808517,-0.02910478040575981,-10.443756103515625
1.7294924641788165e+18,-0.02473263442516327,-0.011744691990315914,-10.52418041229248
1.7294924641878167e+18,0.0035589714534580708,-0.011172568425536156,-10.582172393798828
1.729492464196817e+18,-0.10714615136384964,-0.006136754993349314,-10.542359352111816
1.729492464205817e+18,0.009533779695630074,-0.1133909597992897,-10.555909156799316
1.7294924642118172e+18,0.0702783614397049,0.06357027590274811,-10.59437370300293
1.7294924642208174e+18,0.08380039036273956,-0.04697514325380325,-10.55392074584961
1.7294924642298176e+18,-0.029881104826927185,-0.0895489752292633,-10.531124114990234
1.7294924642358177e+18,0.0017895656637847424,-0.03218347951769829,-10.596210479736328
1.729492464244818e+18,0.03261524438858032,-0.05965518206357956,-10.574169158935547
1.729492464253818e+18,0.04439316317439079,0.027895718812942505,-10.49698257446289
1.7294924642598182e+18,-0.022773580625653267,0.0666009783744812,-10.507394790649414
1.7294924642688184e+18,-0.026577908545732498,-0.057990662753582,-10.589193344116211
1.7294924642748186e+18,-0.04911501705646515,0.007623245008289814,-10.585855484008789
1.7294924642838188e+18,0.03243052959442139,0.0023583918809890747,-10.535691261291504
1.729492464292819e+18,0.004123223014175892,0.0014245621860027313,-10.64220905303955
1.729492464298819e+18,-0.041164953261613846,-0.007150439079850912,-10.56033706665039
1.7294924643078193e+18,-0.013435343280434608,-0.08382261544466019,-10.603642463684082
1.7294924643138194e+18,-0.007539892569184303,-0.017671868205070496,-10.585350036621094
1.7294924643228196e+18,-0.03457464277744293,-0.02830607444047928,-10.579497337341309
1.7294924643318198e+18,0.03561365604400635,0.020206531509757042,-10.558371543884277
1.72949246433782e+18,0.0741252675652504,-0.0033871629275381565,-10.633091926574707
1.72949246434682e+18,0.07423084229230881,0.07314824312925339,-10.672860145568848
1.7294924643558203e+18,-0.0010168016888201237,-0.004208315629512072,-10.669142723083496
1.7294924643618204e+18,-0.03162245824933052,0.0059412093833088875,-10.599263191223145
1.7294924643708206e+18,-0.013033052906394005,-0.040272053331136703,-10.64892292022705
1.7294924643798208e+18,-0.07679884880781174,0.036645010113716125,-10.543275833129883
1.729492464385821e+18,-0.040467821061611176,-0.04557831585407257,-10.640755653381348
1.729492464394821e+18,0.03966401144862175,-0.0670774057507515,-10.592253684997559
1.7294924644008212e+18,0.010845651850104332,0.024539774283766747,-10.655180931091309
1.7294924644098214e+18,0.026470955461263657,0.031270455569028854,-10.568665504455566
1.7294924644158216e+18,0.09253985434770584,-0.047989487648010254,-10.588687896728516
1.7294924644248218e+18,-0.03783430531620979,0.05270490050315857,-10.580636024475098
1.729492464430822e+18,0.029957231134176254,0.012863355688750744,-10.616523742675781
1.729492464439822e+18,0.028098415583372116,0.012713991105556488,-10.665977478027344
1.7294924644458222e+18,0.0015650431159883738,0.023212231695652008,-10.60544204711914
1.7294924644548224e+18,0.003707303199917078,0.06019550561904907,-10.615679740905762
1.7294924644638226e+18,0.008284544572234154,-0.12656767666339874,-10.68262004852295
1.7294924644698227e+18,0.0038503604009747505,0.053848229348659515,-10.613049507141113
1.729492464478823e+18,0.019266029819846153,-0.01890983060002327,-10.568537712097168
1.729492464484823e+18,-0.015443847514688969,-0.0018388748867437243,-10.637418746948242
1.7294924644938232e+18,-0.06299151480197906,0.052433691918849945,-10.625269889831543
1.7294924645028234e+18,0.00425232807174325,0.00686092022806406,-10.669371604919434
1.7294924645118236e+18,-0.020752524957060814,0.03510638698935509,-10.655011177062988
1.7294924645178237e+18,-0.03111041709780693,-0.029726624488830566,-10.6680326461792
1.729492464526824e+18,-0.056503914296627045,-0.00863424688577652,-10.653807640075684
1.729492464532824e+18,-0.04921082779765129,-0.04424518719315529,-10.603865623474121
1.7294924645418243e+18,-0.03264458850026131,-0.03977147117257118,-10.681600570678711
1.7294924645508244e+18,-0.0016865707002580166,-0.02217743918299675,-10.625483512878418
1.7294924645568246e+18,0.03086702898144722,-0.053300872445106506,-10.601652145385742
1.7294924645658248e+18,0.04293545335531235,-0.05460399389266968,-10.657730102539062
1.729492464574825e+18,-0.011543042957782745,0.00832341704517603,-10.55738353729248
1.7294924645838252e+18,-0.0930517315864563,0.020484840497374535,-10.630355834960938
1.7294924645898253e+18,0.015771135687828064,0.014064399525523186,-10.599632263183594
1.7294924645988255e+18,-0.08207137137651443,-0.022988658398389816,-10.547126770019531
1.7294924646078257e+18,0.001324736513197422,-0.0500100813806057,-10.648064613342285
1.7294924646168259e+18,0.03411614149808884,0.018657946959137917,-10.555492401123047
1.729492464622826e+18,-0.0846349224448204,-0.0031819173600524664,-10.643096923828125
1.7294924646318262e+18,0.08080016821622849,0.06454632431268692,-10.563671112060547
1.7294924646408264e+18,-0.06715710461139679,-0.04281659051775932,-10.56171989440918
1.7294924646468265e+18,-0.001511328504420817,-0.011733447201550007,-10.592220306396484
1.7294924646558267e+18,-0.0261379387229681,-0.019679341465234756,-10.602519035339355
1.729492464664827e+18,0.0031584161333739758,0.028081176802515984,-10.66676139831543
1.729492464670827e+18,0.03949686884880066,-0.05807769298553467,-10.606935501098633
1.7294924646798272e+18,-0.0069054532796144485,-0.01288563385605812,-10.585099220275879
1.7294924646888274e+18,0.018716875463724136,-0.01857699453830719,-10.558866500854492
1.7294924646978276e+18,0.06493639945983887,-0.027958786115050316,-10.587318420410156
1.7294924647038277e+18,0.011282438412308693,-0.023236336186528206,-10.62185287475586
1.729492464712828e+18,-0.08170589059591293,0.022946078330278397,-10.619612693786621
1.729492464721828e+18,-0.008106463588774204,0.06418465077877045,-10.671378135681152
1.7294924647308283e+18,-0.12183912843465805,-0.048109281808137894,-10.599631309509277
1.7294924647368284e+18,-0.04361800476908684,-0.111580029129982,-10.497122764587402
1.7294924647458286e+18,-0.030671503394842148,0.008027165196835995,-10.606023788452148
1.7294924647518287e+18,-0.08169177919626236,-0.0033471216447651386,-10.594334602355957
1.729492464760829e+18,0.05998967960476875,0.07107139378786087,-10.61093807220459
1.729492464766829e+18,0.07923261821269989,0.0593138113617897,-10.57951831817627
1.7294924647758292e+18,-0.03951801732182503,-0.026944782584905624,-10.656976699829102
1.7294924647818294e+18,0.04463767260313034,0.0400293730199337,-10.613199234008789
1.7294924647908296e+18,-0.038604918867349625,0.010625255294144154,-10.584908485412598
1.7294924647998298e+18,-0.03273386508226395,-0.003010694868862629,-10.586774826049805
1.72949246480583e+18,0.037122610956430435,-0.016321172937750816,-10.591885566711426
1.72949246481483e+18,0.07042061537504196,-0.005789291113615036,-10.572465896606445
1.7294924648208302e+18,0.10731006413698196,0.008185161277651787,-10.660665512084961
1.7294924648298304e+18,0.021202048286795616,0.013338811695575714,-10.504639625549316
1.7294924648358305e+18,0.03994951397180557,0.02110150456428528,-10.557324409484863
1.7294924648448307e+18,-0.027762286365032196,-0.04601403698325157,-10.60214614868164
1.729492464853831e+18,0.023735782131552696,0.008134691044688225,-10.519775390625
1.729492464859831e+18,0.07288628816604614,-0.0030957702547311783,-10.539467811584473
1.7294924648688312e+18,0.021720662713050842,-0.02990289404988289,-10.530176162719727
1.7294924648748314e+18,-0.041432935744524,-0.0012026295298710465,-10.56000804901123
1.7294924648838316e+18,-0.01722637191414833,-0.08271722495555878,-10.572027206420898
1.7294924648928317e+18,0.04040583223104477,0.05368901416659355,-10.579522132873535
1.729492464898832e+18,-0.011338820680975914,-0.012610148638486862,-10.55088996887207
1.729492464907832e+18,0.03923048824071884,-0.004953681491315365,-10.572876930236816
1.7294924649138322e+18,0.01810498908162117,0.053435929119586945,-10.555119514465332
1.7294924649228324e+18,-0.017169322818517685,0.06394825130701065,-10.530231475830078
1.7294924649288325e+18,0.02910539135336876,0.0728672668337822,-10.586700439453125
1.7294924649378327e+18,-0.004634140525013208,0.08277513086795807,-10.58353042602539
1.7294924649438328e+18,-0.022350143641233444,0.008444948121905327,-10.545570373535156
1.729492464952833e+18,0.06184554100036621,0.0061088064685463905,-10.56697940826416
1.7294924649618332e+18,-0.03662731498479843,-0.059914931654930115,-10.534822463989258
1.7294924649708334e+18,-0.019088691100478172,0.04256417229771614,-10.553544044494629
1.7294924649768335e+18,0.08771762251853943,0.07420207560062408,-10.596192359924316
1.7294924649858337e+18,0.04430876672267914,-0.07095476984977722,-10.49920654296875
1.7294924649918339e+18,0.008967400528490543,-0.06152812018990517,-10.508515357971191
1.729492465000834e+18,-0.03314825892448425,0.03977504000067711,-10.576299667358398
1.7294924650098342e+18,0.013177461922168732,0.007800221908837557,-10.548190116882324
1.7294924650188344e+18,-0.039131488651037216,-0.024659043177962303,-10.54952621459961
1.7294924650248346e+18,-0.02415715530514717,0.06463612616062164,-10.564269065856934
1.7294924650338348e+18,-0.025317182764410973,-4.205974983051419e-05,-10.595548629760742
1.729492465042835e+18,-0.038325149565935135,0.020515568554401398,-10.566621780395508
1.729492465048835e+18,0.02618572860956192,0.02425379492342472,-10.488213539123535
1.7294924650578353e+18,-0.039104606956243515,-0.008568810299038887,-10.502835273742676
1.7294924650638354e+18,-0.022432653233408928,0.005757886450737715,-10.532181739807129
1.7294924650728356e+18,-0.011469550430774689,-0.018768832087516785,-10.603906631469727
1.7294924650818358e+18,-0.04893098771572113,-0.05879928916692734,-10.568639755249023
1.729492465087836e+18,-0.025411978363990784,0.06856255233287811,-10.624528884887695
1.729492465096836e+18,0.007528406102210283,0.03984776511788368,-10.533700942993164
1.7294924651028362e+18,-0.056673530489206314,0.029337503015995026,-10.599261283874512
1.7294924651118364e+18,0.04632507264614105,-0.038311585783958435,-10.593894958496094
1.7294924651208366e+18,-0.07565899938344955,0.033199142664670944,-10.540227890014648
1.7294924651268367e+18,0.03835953027009964,0.03652164712548256,-10.542730331420898
1.729492465135837e+18,-0.007862046360969543,-0.00929664820432663,-10.484477043151855
1.729492465144837e+18,-0.03125438466668129,0.1078852191567421,-10.569649696350098
1.7294924651508372e+18,-0.006523566786199808,-0.019626706838607788,-10.533445358276367
1.7294924651598374e+18,0.05461612343788147,-0.04782942309975624,-10.546592712402344
1.7294924651718377e+18,-0.005555911920964718,-0.01702195778489113,-10.491682052612305
1.729492465180838e+18,0.0034516912419348955,0.08741801232099533,-10.467490196228027
1.729492465189838e+18,0.0035536715295165777,-0.0760466456413269,-10.492650985717773
1.7294924651958382e+18,0.018736135214567184,0.0225767120718956,-10.513894081115723
1.7294924652078385e+18,0.05302165448665619,-0.0424143448472023,-10.538390159606934
1.7294924652168387e+18,-0.05713791772723198,0.00833415798842907,-10.542176246643066
1.7294924652228388e+18,-0.011329284869134426,-0.007735112216323614,-10.528051376342773
1.729492465231839e+18,0.008670033887028694,0.059383947402238846,-10.450883865356445
1.7294924652408392e+18,0.056292228400707245,0.03862317278981209,-10.580294609069824
1.7294924652468393e+18,0.005647218320518732,0.0014378831256181002,-10.554712295532227
1.7294924652558395e+18,-0.036882854998111725,-0.0006902326131239533,-10.517524719238281
1.7294924652618396e+18,0.01727006584405899,0.02419499307870865,-10.429947853088379
1.7294924652708398e+18,0.08515981584787369,-0.06822972744703293,-10.465679168701172
1.72949246527984e+18,0.10607588291168213,-0.11320070922374725,-10.54647445678711
1.7294924652858401e+18,-0.1038881167769432,0.036084067076444626,-10.511056900024414
1.7294924652948403e+18,0.11622557789087296,-0.0688965916633606,-10.542252540588379
1.7294924653038405e+18,0.026121322065591812,-0.028890393674373627,-10.495088577270508
1.7294924653098406e+18,-0.04682767391204834,-0.02563462406396866,-10.576698303222656
1.7294924653188408e+18,-0.07293710857629776,-0.0625542625784874,-10.571086883544922
1.729492465324841e+18,-0.02341967448592186,0.026187032461166382,-10.496161460876465
1.7294924653338412e+18,0.05742466449737549,-0.02503211982548237,-10.447593688964844
1.7294924653428413e+18,0.05440956726670265,-0.055835191160440445,-10.427898406982422
1.7294924653488415e+18,0.017746955156326294,0.024796126410365105,-10.556411743164062
1.7294924653578417e+18,0.025503411889076233,0.05721283704042435,-10.544573783874512
1.7294924653638418e+18,-0.04949366673827171,0.013654389418661594,-10.509599685668945
1.729492465372842e+18,0.09022703766822815,-0.04127844050526619,-10.491987228393555
1.729492465378842e+18,0.01807420887053013,-0.04324661195278168,-10.472679138183594
1.7294924653878423e+18,0.0021194361615926027,0.0024250377900898457,-10.461067199707031
1.7294924653968425e+18,0.043735675513744354,-0.0030929057393223047,-10.530004501342773
1.7294924654028426e+18,0.01504148542881012,-0.07028193026781082,-10.508676528930664
1.7294924654118428e+18,-0.03686364367604256,0.1165505200624466,-10.408967018127441
1.729492465417843e+18,-0.01304660364985466,0.054212894290685654,-10.41199016571045
1.7294924654268431e+18,0.017836028710007668,-0.02388204261660576,-10.462095260620117
1.7294924654358433e+18,0.029856102541089058,0.02985755354166031,-10.469198226928711
1.7294924654418435e+18,0.017052382230758667,-0.06032199412584305,-10.396676063537598
1.7294924654508436e+18,-0.013732009567320347,-0.03506782278418541,-10.49147891998291
1.7294924654568438e+18,-0.023542124778032303,-0.07362940907478333,-10.481879234313965
1.729492465465844e+18,-0.07536961883306503,0.00486722169443965,-10.410436630249023
1.7294924654748442e+18,-0.01840362325310707,0.012079526670277119,-10.502013206481934
1.7294924654808443e+18,-9.213899465976283e-05,-0.0008656356949359179,-10.46007251739502
1.7294924654898445e+18,-0.025964777916669846,0.0285644493997097,-10.4463529586792
1.7294924654988447e+18,0.03794476389884949,0.005919306538999081,-10.359147071838379
1.7294924655048448e+18,0.08956576138734818,0.09294284880161285,-10.330008506774902
1.729492465519845e+18,0.0357474721968174,-0.09058763086795807,-10.315733909606934
1.7294924655288453e+18,-0.009964833036065102,0.059770308434963226,-10.228306770324707
1.7294924655378455e+18,-0.023592151701450348,-0.059032831341028214,-10.225011825561523
1.7294924655468457e+18,0.029966183006763458,-0.02578325942158699,-10.162870407104492
1.7294924655528458e+18,0.07742881774902344,0.001372479717247188,-10.1867094039917
1.729492465561846e+18,-0.059780020266771317,0.0448867604136467,-10.184795379638672
1.7294924655708462e+18,0.03433198109269142,-0.009177926927804947,-10.10783863067627
1.7294924655768463e+18,-0.03318892419338226,-0.06606539338827133,-10.177438735961914
1.7294924655858465e+18,0.0211620070040226,-0.017743483185768127,-10.064911842346191
1.7294924655918467e+18,0.05233307182788849,0.015284876339137554,-10.000475883483887
1.7294924656008468e+18,-0.00707059632986784,-0.08077037334442139,-10.060880661010742
1.729492465606847e+18,-0.0404178649187088,0.040094055235385895,-10.016668319702148
1.7294924656158472e+18,0.0581522174179554,-0.03304481878876686,-10.007304191589355
1.7294924656248474e+18,0.04020644724369049,0.0237700454890728,-10.03681755065918
1.7294924656308475e+18,-0.04368038848042488,-0.043125517666339874,-9.924890518188477
1.7294924656398477e+18,0.019852062687277794,-0.049288831651210785,-9.884407043457031
1.729492465648848e+18,0.08841343969106674,-0.038495954126119614,-9.918484687805176
1.729492465660848e+18,-0.0055724140256643295,0.07290351390838623,-9.932104110717773
1.7294924656668483e+18,-0.06859889626502991,-0.005152394063770771,-9.79617691040039
1.7294924656788485e+18,-0.027683764696121216,-0.0050645614974200726,-9.902416229248047
1.7294924656878487e+18,0.019474931061267853,-0.0772145539522171,-9.789312362670898
1.7294924656938488e+18,-0.05023370683193207,-0.03917764499783516,-9.815381050109863
1.729492465702849e+18,0.04108235239982605,0.056406162679195404,-9.750924110412598
1.7294924657118492e+18,0.0011990172788500786,0.012326912954449654,-9.736298561096191
1.7294924657178493e+18,-0.012471633963286877,-0.027530288323760033,-9.819591522216797
1.7294924657268495e+18,-0.012131469324231148,0.07893738895654678,-9.700105667114258
1.7294924657358497e+18,-0.0014594846870750189,0.08327861875295639,-9.68051815032959
1.72949246574485e+18,-0.006954668555408716,-0.06112143397331238,-9.654970169067383
1.72949246575085e+18,0.0008219947339966893,0.036484912037849426,-9.729805946350098
1.7294924657598502e+18,-0.008439652621746063,-0.0324702151119709,-9.719346046447754
1.7294924657688504e+18,0.01329642441123724,0.051194723695516586,-9.677021026611328
1.7294924657748506e+18,-0.03686990216374397,-0.013353575021028519,-9.638676643371582
1.7294924657868508e+18,0.04347626492381096,-0.022692468017339706,-9.64189338684082
1.729492465795851e+18,0.034004878252744675,-0.0499831922352314,-9.73939037322998
1.7294924658048512e+18,0.04269224405288696,-0.04004986956715584,-9.67271614074707
1.7294924658108513e+18,0.04949289560317993,0.09361958503723145,-9.674735069274902
1.7294924658168515e+18,0.02487858757376671,-0.04505811259150505,-9.578996658325195
1.7294924658258516e+18,-0.09299967437982559,-0.028981076553463936,-9.671178817749023
1.7294924658348518e+18,-0.0173485167324543,0.04407703876495361,-9.688039779663086
1.729492465843852e+18,0.04818158224225044,0.06164891645312309,-9.649983406066895
1.7294924658498522e+18,0.001543307094834745,0.0526244081556797,-9.618269920349121
1.7294924658588524e+18,0.016811734065413475,-0.012494206428527832,-9.548849105834961
1.7294924658678525e+18,-0.006535990163683891,0.06712028384208679,-9.645295143127441
1.7294924658738527e+18,-0.049373552203178406,-0.06667131185531616,-9.662970542907715
1.7294924658828529e+18,-0.049140091985464096,0.046352311968803406,-9.684643745422363
1.729492465888853e+18,-0.09101631492376328,-0.05244330316781998,-9.607951164245605
1.7294924658978532e+18,-0.018413953483104706,-0.0076839253306388855,-9.647014617919922
1.7294924659068534e+18,-0.08405963331460953,0.028558555990457535,-9.587285041809082
1.7294924659128535e+18,0.008878625929355621,-0.026314498856663704,-9.634495735168457
1.7294924659218537e+18,-0.013905677013099194,-0.0538848377764225,-9.715007781982422
1.7294924659278538e+18,0.005645005963742733,-0.023640533909201622,-9.624000549316406
1.729492465936854e+18,-0.013628504239022732,-0.007597723510116339,-9.568633079528809
1.7294924659458542e+18,0.03793461248278618,-0.016562972217798233,-9.533673286437988
1.7294924659518543e+18,0.05712302401661873,0.01738644763827324,-9.62521743774414
1.7294924659608545e+18,-0.03374630585312843,-0.019515510648489,-9.625420570373535
1.7294924659698547e+18,-0.052531179040670395,-0.0076318043284118176,-9.653498649597168
1.7294924659758548e+18,-0.005085919983685017,-0.029081903398036957,-9.60456657409668
1.729492465984855e+18,-0.001534421811811626,-0.02104870229959488,-9.679048538208008
1.7294924659938552e+18,-0.02374904975295067,-0.06302476674318314,-9.636377334594727
1.7294924659998554e+18,0.012645441107451916,0.04520728439092636,-9.650640487670898
1.7294924660088556e+18,0.01829083263874054,-0.011021703481674194,-9.563735008239746
1.7294924660178557e+18,0.020129993557929993,0.0598784014582634,-9.544539451599121
1.7294924660238559e+18,-0.05025545135140419,0.01933092251420021,-9.520062446594238
1.729492466032856e+18,-0.003834059229120612,0.04253041744232178,-9.63900089263916
1.7294924660388562e+18,-0.028513919562101364,0.0059213824570178986,-9.593781471252441
1.7294924660478564e+18,0.0029296386055648327,0.025670558214187622,-9.596468925476074
1.7294924660538565e+18,-0.03489820286631584,0.007894087582826614,-9.58203411102295
1.7294924660628567e+18,-0.034710709005594254,0.018804436549544334,-9.646611213684082
1.729492466071857e+18,-0.02736128494143486,0.002750987187027931,-9.513997077941895
1.729492466080857e+18,0.018228253349661827,-0.012333743274211884,-9.613802909851074
1.7294924660868572e+18,-0.013558557257056236,0.04026026278734207,-9.571610450744629
1.7294924660958574e+18,-0.05397758260369301,-0.011853327974677086,-9.602740287780762
1.7294924661048576e+18,-0.05879291892051697,-0.052491579204797745,-9.601552963256836
1.7294924661108577e+18,-0.05085323378443718,-0.0025938975159078836,-9.59208869934082
1.729492466119858e+18,-0.01770872250199318,0.06725943088531494,-9.581830024719238
1.729492466125858e+18,0.07123056799173355,0.07014373689889908,-9.613486289978027
1.7294924661348582e+18,0.01743389293551445,0.01786903478205204,-9.545295715332031
1.7294924661438584e+18,-0.007150767371058464,-0.037880443036556244,-9.532370567321777
1.7294924661528586e+18,-0.015920691192150116,-0.027252046391367912,-9.529230117797852
1.7294924661588588e+18,0.019599035382270813,-0.02036760374903679,-9.54426097869873
1.729492466167859e+18,-0.024212632328271866,0.02966853603720665,-9.588295936584473
1.7294924661768591e+18,0.0425604023039341,-0.08712679892778397,-9.510993957519531
1.7294924661828593e+18,0.055071424692869186,0.0030630009714514017,-9.583245277404785
1.7294924661918595e+18,0.026828736066818237,-0.05379220470786095,-9.464058876037598
1.7294924661978596e+18,-0.012773655354976654,-0.05727293714880943,-9.58946704864502
1.7294924662068598e+18,0.06080981716513634,-0.07758557796478271,-9.581526756286621
1.72949246621286e+18,0.033371102064847946,0.008597094565629959,-9.560626983642578
1.72949246622186e+18,0.002945512067526579,0.005847002845257521,-9.5072021484375
1.7294924662278602e+18,0.030077017843723297,-0.018058231100440025,-9.509057998657227
1.7294924662368604e+18,0.04213983565568924,0.006597359199076891,-9.530306816101074
1.7294924662458606e+18,0.06540586799383163,-0.043989308178424835,-9.541260719299316
1.7294924662518607e+18,0.022049184888601303,0.003654721425846219,-9.561599731445312
1.729492466260861e+18,0.000554690370336175,0.000671268324367702,-9.579666137695312
1.729492466269861e+18,0.04049893841147423,-0.0059158215299248695,-9.564169883728027
1.7294924662758612e+18,0.037132278084754944,-0.0012138818856328726,-9.541430473327637
1.7294924662848614e+18,-0.040055468678474426,0.003637415822595358,-9.58938217163086
1.7294924662908616e+18,-0.027827665209770203,-0.0407077893614769,-9.51953125
1.7294924662998618e+18,0.008325929753482342,0.06396685540676117,-9.552253723144531
1.729492466308862e+18,-0.038494888693094254,0.014923688024282455,-9.62073040008545
1.729492466314862e+18,0.018708357587456703,-0.050025977194309235,-9.50020694732666
1.7294924663238623e+18,0.0069238049909472466,0.039401356130838394,-9.515571594238281
1.7294924663328625e+18,0.006720392499119043,0.043799493461847305,-9.547307968139648
1.7294924663388626e+18,-0.03221035748720169,0.019874870777130127,-9.577722549438477
1.7294924663478628e+18,-0.041240643709897995,0.07794526219367981,-9.552506446838379
1.729492466353863e+18,0.012378999032080173,0.06802487373352051,-9.56474494934082
1.729492466362863e+18,-0.03921114653348923,0.040661394596099854,-9.534722328186035
1.7294924663718633e+18,-0.027355391532182693,-0.02688121236860752,-9.546175956726074
1.7294924663778634e+18,-0.00420950073748827,-0.02987174689769745,-9.479264259338379
1.7294924663868636e+18,-0.003472642507404089,-0.0690065547823906,-9.439216613769531
1.7294924663958638e+18,0.011859583668410778,0.025090377777814865,-9.514780044555664
1.729492466401864e+18,-0.029575366526842117,0.012008335441350937,-9.496696472167969
1.729492466410864e+18,0.02931242622435093,-0.05916770547628403,-9.574642181396484
1.7294924664198643e+18,-0.046913936734199524,0.03098267689347267,-9.530640602111816
1.7294924664258644e+18,-0.10450051724910736,-0.015345051884651184,-9.5415678024292
1.7294924664348646e+18,0.0277114138007164,-0.022880805656313896,-9.566874504089355
1.7294924664408648e+18,0.017069753259420395,0.13117282092571259,-9.481340408325195
1.729492466449865e+18,0.011092135682702065,0.016915608197450638,-9.46440601348877
1.7294924664588652e+18,-0.03195337951183319,-0.004517211578786373,-9.51867389678955
1.7294924664648653e+18,0.02310866303741932,0.019527895376086235,-9.442193031311035
1.7294924664738655e+18,0.005284507293254137,0.01296369917690754,-9.570096969604492
1.7294924664828657e+18,0.01570204645395279,0.012016989290714264,-9.534574508666992
1.7294924664888658e+18,0.045046187937259674,-0.04079296439886093,-9.444941520690918
1.729492466497866e+18,-0.04434356838464737,-0.01945067197084427,-9.580611228942871
1.729492466503866e+18,0.03856828063726425,0.023706357926130295,-9.490080833435059
1.7294924665128663e+18,0.040908269584178925,0.007929189130663872,-9.485286712646484
1.7294924665218665e+18,-0.012052705511450768,-0.009380876086652279,-9.527528762817383
1.7294924665278666e+18,0.08090190589427948,0.0166789423674345,-9.563425064086914
1.7294924665368668e+18,-0.02019369974732399,0.0007795429555699229,-9.513520240783691
1.729492466545867e+18,0.0025409292429685593,0.03609810769557953,-9.52724838256836
1.7294924665548672e+18,0.03358262777328491,0.03485807031393051,-9.528998374938965
1.7294924665608673e+18,0.01611322909593582,-0.027516577392816544,-9.510164260864258
1.7294924665698675e+18,-0.03819269686937332,-0.014584294520318508,-9.509767532348633
1.7294924665788677e+18,0.03287253901362419,0.016440263018012047,-9.536613464355469
1.7294924665848678e+18,0.04859922453761101,-0.04025721177458763,-9.526493072509766
1.729492466593868e+18,-0.0850173756480217,0.012797363102436066,-9.50222396850586
1.7294924666028682e+18,-0.10142381489276886,-0.12306828051805496,-9.496585845947266
1.7294924666088684e+18,-0.04741876572370529,-0.006432295776903629,-9.585047721862793
1.7294924666178685e+18,0.0035659593995660543,0.06829756498336792,-9.474326133728027
1.7294924666238687e+18,-0.05509449541568756,-0.0699450746178627,-9.492172241210938
1.7294924666328689e+18,0.006933311466127634,-0.04241132363677025,-9.532727241516113
1.729492466641869e+18,0.03470926359295845,-0.051934029906988144,-9.505768775939941
1.7294924666478692e+18,0.015726467594504356,0.033769797533750534,-9.445157051086426
1.7294924666568694e+18,-0.005940517410635948,-0.010828563012182713,-9.449874877929688
1.7294924666658696e+18,0.03183908760547638,0.06182019039988518,-9.484665870666504
1.7294924666748698e+18,0.05338026210665703,0.014119862578809261,-9.459312438964844
1.72949246668087e+18,0.010394806042313576,0.0353703573346138,-9.43895435333252
1.72949246668987e+18,-0.011938742361962795,-0.021933045238256454,-9.457608222961426
1.7294924667018703e+18,-0.005991947837173939,-0.00662910845130682,-9.416121482849121
1.7294924667108705e+18,-0.05557651445269585,0.009904980659484863,-9.471816062927246
1.7294924667168707e+18,-0.017031202092766762,0.02604442834854126,-9.443869590759277
1.7294924667258708e+18,0.002375292591750622,0.03433149307966232,-9.47476577758789
1.729492466731871e+18,0.03527582809329033,-0.0627746656537056,-9.39085578918457
1.7294924667408712e+18,-0.029020925983786583,-0.06163399666547775,-9.43817138671875
1.7294924667498714e+18,-0.004439639858901501,-0.025535080581903458,-9.408772468566895
1.7294924667588716e+18,-0.00046309386380016804,-0.009479670785367489,-9.494739532470703
1.7294924667648717e+18,0.03142007812857628,0.010873179882764816,-9.474361419677734
1.7294924667738719e+18,0.07547469437122345,-0.004857150837779045,-9.436534881591797
1.729492466779872e+18,0.058364372700452805,0.10062510520219803,-9.442221641540527
1.7294924667888722e+18,0.11562977731227875,0.04238642752170563,-9.439312934875488
1.7294924667948723e+18,0.033757831901311874,0.024838121607899666,-9.51707649230957
1.7294924668038725e+18,-0.02100123092532158,-0.013328819535672665,-9.46891975402832
1.7294924668128727e+18,-0.03086530789732933,0.019503217190504074,-9.418778419494629
1.7294924668188728e+18,0.05299897864460945,0.07503582537174225,-9.541780471801758
1.729492466827873e+18,-0.05107216164469719,-0.0072336881421506405,-9.502983093261719
1.7294924668368732e+18,0.0186481736600399,-0.03970803692936897,-9.534744262695312
1.7294924668428733e+18,0.005311520770192146,-0.0008425753330811858,-9.51773452758789
1.7294924668518735e+18,0.028934689238667488,0.07095451653003693,-9.481979370117188
1.7294924668578737e+18,-0.02720072865486145,-0.024311058223247528,-9.437920570373535
1.7294924668668739e+18,-0.025123214349150658,-0.026512296870350838,-9.448718070983887
1.729492466875874e+18,-0.029458360746502876,0.0003428611671552062,-9.459657669067383
1.7294924668848742e+18,-0.03458625078201294,-0.03272305428981781,-9.409323692321777
1.7294924668908744e+18,-0.05485927313566208,0.02289518341422081,-9.431071281433105
1.7294924668998746e+18,0.044263821095228195,0.0020665405318140984,-9.487451553344727
1.7294924669058747e+18,-0.015919871628284454,-0.0071580251678824425,-9.372701644897461
1.729492466914875e+18,0.05287541076540947,-0.024848319590091705,-9.495434761047363
1.729492466923875e+18,0.07175196707248688,-0.004682409577071667,-9.419794082641602
1.7294924669298752e+18,-0.03158292919397354,0.00665243761613965,-9.478569984436035
1.7294924669388754e+18,0.03056224435567856,0.0007624321151524782,-9.391410827636719
1.7294924669478756e+18,0.021755436435341835,-0.059471629559993744,-9.490760803222656
1.7294924669538757e+18,-0.025952907279133797,0.03692696988582611,-9.46669864654541
1.729492466962876e+18,0.02672293223440647,0.03717567026615143,-9.44601058959961
1.729492466971876e+18,0.004252579063177109,0.014250202104449272,-9.443670272827148
1.7294924669778762e+18,-0.0051369876600801945,-0.09539608657360077,-9.50786018371582
1.7294924669868764e+18,-0.006556898355484009,-0.05056377872824669,-9.450423240661621
1.7294924669958766e+18,-0.04771137610077858,0.01778250001370907,-9.48254680633545
1.7294924670018767e+18,-0.05720660462975502,-0.02511739730834961,-9.470539093017578
1.729492467010877e+18,-0.07912535220384598,-0.02531687542796135,-9.454377174377441
1.729492467019877e+18,0.0016478041652590036,0.06537052243947983,-9.474939346313477
1.7294924670258772e+18,-0.08783728629350662,-0.03457561507821083,-9.450665473937988
1.7294924670348774e+18,-0.016519632190465927,0.08433280140161514,-9.430420875549316
1.7294924670438776e+18,-0.011085362173616886,0.04259338602423668,-9.374293327331543
1.7294924670498778e+18,0.005076812580227852,0.01564350537955761,-9.452313423156738
1.729492467058878e+18,-0.025582293048501015,-0.0011440308298915625,-9.447134971618652
1.7294924670678781e+18,-0.04512149468064308,-0.00924695748835802,-9.404023170471191
1.7294924670738783e+18,-0.09396862238645554,-0.08027435839176178,-9.50279712677002
1.7294924670828785e+18,0.037010762840509415,-0.007863110862672329,-9.430739402770996
1.7294924670888786e+18,-0.041788917034864426,0.053121067583560944,-9.513153076171875
1.7294924670978788e+18,0.013671892695128918,-0.03589518368244171,-9.438682556152344
1.729492467106879e+18,-0.04798572510480881,-0.10296095162630081,-9.476773262023926
1.729492467112879e+18,-0.0017598930280655622,-0.01606612652540207,-9.466444969177246
1.7294924671218793e+18,-0.010179291479289532,-0.055855944752693176,-9.364269256591797
1.7294924671278794e+18,0.05396900698542595,-0.0705389603972435,-9.36245059967041
1.7294924671368796e+18,0.015126856043934822,-0.026471054181456566,-9.430129051208496
1.7294924671458798e+18,0.027589257806539536,-0.02835691161453724,-9.296380043029785
1.72949246715188e+18,0.020972393453121185,-0.034984853118658066,-9.356544494628906
1.72949246716088e+18,0.007488457951694727,-0.02285255864262581,-9.200372695922852
1.7294924671698803e+18,-0.062437061220407486,-0.02321673184633255,-9.266305923461914
1.7294924671788805e+18,-0.039388108998537064,-0.038088228553533554,-9.251063346862793
1.7294924671848806e+18,0.037504345178604126,0.02907499112188816,-9.217459678649902
1.7294924671938808e+18,0.0043677110224962234,-0.004689082968980074,-9.230711936950684
1.729492467199881e+18,0.022263363003730774,-0.09579002857208252,-9.139152526855469
1.7294924672088812e+18,0.05092703178524971,0.044643573462963104,-9.206015586853027
1.7294924672178813e+18,-0.040563974529504776,0.020788010209798813,-9.110535621643066
1.7294924672268815e+18,-0.05771487578749657,-0.04480984807014465,-9.089631080627441
1.7294924672328817e+18,-0.013409699313342571,-0.12309660762548447,-9.109859466552734
1.7294924672418819e+18,0.028879962861537933,-0.05525975301861763,-9.122213363647461
1.729492467247882e+18,-0.07182195037603378,-0.09535600244998932,-9.09216594696045
1.7294924672568822e+18,-0.007915327325463295,0.042610470205545425,-8.943037986755371
1.7294924672658824e+18,-0.08161803334951401,-0.03534643352031708,-8.895195007324219
1.7294924672748826e+18,-0.045772068202495575,-0.026099395006895065,-8.948478698730469
1.7294924672808827e+18,0.024334119632840157,0.034991342574357986,-8.895157814025879
1.729492467289883e+18,0.019991435110569,-0.048665039241313934,-8.95582389831543
1.729492467295883e+18,0.04447945952415466,0.03465650975704193,-8.890864372253418
1.7294924673048832e+18,0.047365453094244,0.05326080322265625,-8.86064338684082
1.7294924673108833e+18,0.05458194762468338,0.05059643089771271,-8.880684852600098
1.7294924673198835e+18,-0.010578981600701809,0.020652566105127335,-8.747207641601562
1.7294924673288837e+18,0.02354387938976288,0.032853901386260986,-8.906867980957031
1.729492467337884e+18,9.550436516292393e-06,0.015473742969334126,-8.755243301391602
1.729492467346884e+18,-0.018052082508802414,0.06798367947340012,-8.74261474609375
1.7294924673528842e+18,-0.04878044128417969,0.02447720430791378,-8.633760452270508
1.7294924673618844e+18,0.029400818049907684,-0.07590893656015396,-8.675329208374023
1.7294924673708846e+18,0.030909426510334015,-0.06230146810412407,-8.729259490966797
1.7294924673768847e+18,-0.08265160024166107,-0.04953683167695999,-8.670506477355957
1.729492467385885e+18,0.07166687399148941,0.029167670756578445,-8.618917465209961
1.729492467391885e+18,0.026153817772865295,-0.003961275331676006,-8.66277027130127
1.7294924674008852e+18,-0.020878905430436134,-0.025711117312312126,-8.655501365661621
1.7294924674098854e+18,-0.045130178332328796,0.08000168949365616,-8.696859359741211
1.7294924674158856e+18,-0.02027752250432968,0.016747696325182915,-8.624459266662598
1.7294924674248858e+18,0.03652378171682358,-0.02936713583767414,-8.65106201171875
1.729492467433886e+18,0.02917376533150673,0.02476031333208084,-8.699054718017578
1.729492467439886e+18,0.010228198952972889,-0.03588677942752838,-8.747882843017578
1.7294924674488863e+18,-0.00610677246004343,0.08453795313835144,-11.99150276184082
1.7294924674578865e+18,0.09522485733032227,-0.03182777017354965,-15.456682205200195
1.7294924674638866e+18,-0.015202322974801064,0.04497635364532471,-15.941006660461426
1.7294924674728868e+18,0.008282307535409927,0.03806416690349579,-16.012718200683594
1.729492467481887e+18,0.05333008989691734,-0.021970387548208237,-16.112993240356445
1.729492467487887e+18,-0.03762257099151611,-0.042352307587862015,-16.161832809448242
1.7294924674968873e+18,0.009082460775971413,0.004083485342562199,-16.1192626953125
1.7294924675028874e+18,-0.06574135273694992,0.00983666256070137,-15.95766544342041
1.7294924675118876e+18,-0.02127283252775669,-0.07066217064857483,-15.785319328308105
1.7294924675208878e+18,-0.004430387169122696,0.05604119971394539,-15.702812194824219
1.729492467529888e+18,-0.018623292446136475,0.011599245481193066,-15.472740173339844
1.7294924675358881e+18,-0.010720780119299889,-0.0046508945524692535,-15.492897033691406
1.7294924675448883e+18,-0.05291656032204628,-0.02378144860267639,-15.25045108795166
1.7294924675538885e+18,-0.004672888666391373,0.005850550718605518,-15.239494323730469
1.7294924675598886e+18,0.03054243139922619,-0.00021153874695301056,-15.164443016052246
1.7294924675688888e+18,-0.09092801809310913,-0.03210916742682457,-15.000821113586426
1.729492467577889e+18,-0.07388780266046524,-0.018471650779247284,-14.816213607788086
1.7294924675868892e+18,-0.04293692111968994,0.03917301446199417,-14.773223876953125
1.7294924675928893e+18,-0.029431255534291267,-0.027358371764421463,-14.681024551391602
1.7294924676018895e+18,-0.0644666850566864,-0.059398818761110306,-14.537375450134277
1.7294924676108897e+18,0.03581414371728897,0.02123814821243286,-14.521060943603516
1.72949246761989e+18,0.019816314801573753,0.01669076643884182,-14.379349708557129
1.72949246762889e+18,0.012009737081825733,0.00997683685272932,-14.118673324584961
1.7294924676348902e+18,-0.09887152165174484,-0.06897245347499847,-14.17666244506836
1.7294924676438904e+18,-0.05833180621266365,-0.057815831154584885,-14.081026077270508
1.7294924676528906e+18,0.018254496157169342,-0.060868918895721436,-13.896227836608887
1.7294924676588908e+18,-0.029414493590593338,0.022554911673069,-13.859088897705078
1.729492467667891e+18,-0.014740641228854656,0.019704274833202362,-13.794946670532227
1.7294924676768911e+18,0.05068093165755272,0.03929607570171356,-13.687405586242676
1.7294924676858913e+18,-0.026626616716384888,0.050553709268569946,-13.587489128112793
1.7294924676948915e+18,-0.05622640252113342,0.02802583947777748,-13.473570823669434
1.7294924677038917e+18,0.04357966035604477,-0.0006971261464059353,-13.382962226867676
1.7294924677098918e+18,0.045480482280254364,0.03940298408269882,-13.44257926940918
1.729492467718892e+18,-0.013818657025694847,0.05412313714623451,-13.16264533996582
1.7294924677278922e+18,0.001517932629212737,0.019126469269394875,-13.240103721618652
1.7294924677368924e+18,0.042132388800382614,0.006855044048279524,-13.122457504272461
1.7294924677458926e+18,-0.03654348850250244,-0.035638920962810516,-13.005993843078613
1.7294924677548928e+18,-0.036882154643535614,0.018268592655658722,-12.944841384887695
1.729492467760893e+18,-0.0060332054272294044,0.03289739787578583,-12.903974533081055
1.7294924677728932e+18,0.015561174601316452,0.012386982329189777,-12.81987190246582
1.7294924677818934e+18,0.033871814608573914,-0.008548877201974392,-12.754631996154785
1.7294924677908936e+18,0.056631166487932205,0.02818605862557888,-12.66657829284668
1.7294924677998938e+18,0.024483444169163704,-0.004254497122019529,-12.644463539123535
1.729492467808894e+18,0.026605283841490746,0.14369738101959229,-12.54644775390625
1.7294924678178941e+18,-0.03124535270035267,-0.0011789451818913221,-12.485136032104492
1.7294924678268943e+18,0.04279601201415062,-0.03025750443339348,-12.374124526977539
1.7294924678328945e+18,0.06400986760854721,-0.06722008436918259,-12.349186897277832
1.7294924678418947e+18,0.02359466254711151,-0.0064263613894581795,-12.390262603759766
1.7294924678508948e+18,-0.03323041647672653,-0.02636595442891121,-12.240872383117676
1.729492467859895e+18,0.020058125257492065,-0.08532755076885223,-12.174098014831543
1.7294924678688952e+18,0.00028293440118432045,0.02867157757282257,-12.208595275878906
1.7294924678748954e+18,0.022263580933213234,0.0084987198933959,-12.147228240966797
1.7294924678838956e+18,0.007307635620236397,0.077032171189785,-12.140894889831543
1.7294924678928957e+18,-0.007888518273830414,0.04745534062385559,-12.018646240234375
1.729492467901896e+18,-0.017850236967206,-0.041189391165971756,-12.002305030822754
1.729492467910896e+18,-0.02779456600546837,-0.01486994419246912,-12.001766204833984
1.7294924679198963e+18,0.001928781159222126,0.11669925600290298,-11.894195556640625
1.7294924679258964e+18,-0.07924919575452805,-0.0798337310552597,-11.836519241333008
1.7294924679348966e+18,-0.038856860250234604,0.03470081090927124,-11.807003021240234
1.7294924679438968e+18,0.05513940379023552,0.019372757524251938,-11.750205039978027
1.729492467952897e+18,0.07415004074573517,0.057010773569345474,-11.758646011352539
1.7294924679588972e+18,-0.01836596615612507,-0.03776830807328224,-11.735954284667969
1.7294924679678973e+18,-0.006054101511836052,0.0651424378156662,-11.60518741607666
1.7294924679768975e+18,-0.0287557914853096,-0.05938950926065445,-11.627556800842285
1.7294924679828977e+18,0.00024789507733657956,-0.07772398740053177,-11.624757766723633
1.7294924679918979e+18,-0.01258724182844162,0.04566429927945137,-11.561570167541504
1.729492468000898e+18,-0.01967284269630909,-0.06582320481538773,-11.55053424835205
1.7294924680068982e+18,-0.054790109395980835,-0.0233991127461195,-11.578052520751953
1.7294924680158984e+18,-0.03586431220173836,0.024511031806468964,-11.457060813903809
1.7294924680218985e+18,-0.02049306221306324,0.07550700753927231,-11.45946216583252
1.7294924680308987e+18,0.10453784465789795,-0.010879416018724442,-11.333439826965332
1.729492468039899e+18,-0.0343647226691246,-0.054705310612916946,-11.352496147155762
1.729492468045899e+18,-0.009311010129749775,-0.11379826813936234,-11.32532787322998
1.7294924680548992e+18,-0.015832360833883286,0.03899054229259491,-11.294719696044922
1.7294924680638994e+18,-0.00011499406537041068,-0.024607239291071892,-11.319477081298828
1.7294924680698995e+18,0.026491742581129074,0.05385453253984451,-11.242518424987793
1.7294924680788997e+18,-0.047069478780031204,0.0336456261575222,-11.268467903137207
1.7294924680848998e+18,-0.049450505524873734,-0.020355580374598503,-11.192797660827637
1.7294924680939e+18,-0.022020094096660614,0.07263929396867752,-11.136484146118164
1.7294924680999002e+18,0.03855938836932182,0.020219067111611366,-11.190271377563477
1.7294924681089004e+18,0.05847321078181267,0.05204925313591957,-11.093469619750977
1.7294924681179005e+18,0.01909220963716507,0.020709730684757233,-11.164326667785645
1.7294924681239007e+18,-0.03977007418870926,-0.02807443030178547,-11.03173542022705
1.7294924681329009e+18,0.03663083165884018,-0.009806083515286446,-11.094598770141602
1.729492468138901e+18,-0.04697812348604202,0.03715665638446808,-10.984272956848145
1.7294924681479012e+18,0.02803104929625988,0.0022456699516624212,-11.0228853225708
1.7294924681569014e+18,0.04569924250245094,0.01111056748777628,-10.946724891662598
1.7294924681629015e+18,0.032429229468107224,0.11217007786035538,-10.9898042678833
1.7294924681719017e+18,-0.03338200971484184,-0.03148862347006798,-10.942232131958008
1.729492468180902e+18,-0.030297381803393364,-0.0035776151344180107,-10.882554054260254
1.729492468186902e+18,-0.04059003293514252,-0.025594858452677727,-10.897245407104492
1.7294924681959022e+18,-0.01519078016281128,-0.04888852313160896,-10.858084678649902
1.7294924682049024e+18,-0.05537331849336624,0.003805924206972122,-10.792841911315918
1.7294924682109025e+18,-0.010420972481369972,-0.011782285757362843,-10.855755805969238
1.7294924682199027e+18,-0.00762164406478405,-0.0127660958096385,-10.882558822631836
1.729492468228903e+18,-0.007930241525173187,0.026451602578163147,-10.784958839416504
1.729492468234903e+18,-0.04951200634241104,-0.043302349746227264,-10.748026847839355
1.7294924682439032e+18,-0.05640093609690666,0.09494780004024506,-10.676855087280273
1.7294924682529034e+18,-0.04342185705900192,-0.00032500323140993714,-10.711029052734375
1.7294924682589036e+18,-0.037735212594270706,-0.1295066624879837,-10.729621887207031
1.7294924682679037e+18,-0.09008853137493134,0.014281699433922768,-10.765656471252441
1.729492468276904e+18,-0.0031776614487171173,0.016509801149368286,-10.699657440185547
1.729492468282904e+18,0.01751047931611538,0.012175065465271473,-10.751785278320312
1.7294924682919043e+18,0.014379682019352913,0.03382395952939987,-10.66642951965332
1.7294924683009044e+18,-0.03023756481707096,0.01965293101966381,-10.673774719238281
1.7294924683069046e+18,0.01846490241587162,-0.027734365314245224,-10.67159366607666
1.7294924683159048e+18,-0.0003942619659937918,-0.007554533891379833,-10.673691749572754
1.729492468321905e+18,-0.016076423227787018,0.07820501923561096,-10.643190383911133
1.729492468330905e+18,-0.03546648845076561,-0.01418857928365469,-10.523319244384766
1.7294924683369052e+18,-0.046159207820892334,-0.01642792671918869,-10.554874420166016
1.7294924683459054e+18,0.011956953443586826,0.05611930787563324,-10.536410331726074
1.7294924683549056e+18,-0.010278256610035896,-0.055561985820531845,-10.65153980255127
1.7294924683609057e+18,-0.09022001922130585,-0.016838079318404198,-10.46518325805664
1.729492468369906e+18,-0.01885134167969227,-0.06421279907226562,-10.467254638671875
1.7294924683849062e+18,0.017273547127842903,0.12391835451126099,-10.525016784667969
1.7294924683939064e+18,-0.017537280917167664,0.016627846285700798,-10.455034255981445
1.7294924684029066e+18,0.012011907063424587,0.04390321299433708,-10.391850471496582
1.7294924684119068e+18,0.02265922538936138,0.07419297099113464,-10.445099830627441
1.729492468417907e+18,0.010948164388537407,0.03726022690534592,-10.464462280273438
1.7294924684269071e+18,-0.013646960258483887,0.08351260423660278,-10.39760684967041
1.7294924684359073e+18,-0.006001904606819153,0.015352848917245865,-10.427372932434082
1.7294924684419075e+18,-0.03239402920007706,0.0479070320725441,-10.381037712097168
1.7294924684509076e+18,-0.001905733486637473,0.04319597780704498,-10.333868980407715
1.7294924684569078e+18,-0.028121329843997955,-0.04722365736961365,-10.287973403930664
1.729492468465908e+18,0.050825800746679306,-0.01299202162772417,-10.257566452026367
1.729492468471908e+18,-0.00855915155261755,0.03336075693368912,-10.259949684143066
1.7294924684809083e+18,-0.006823364645242691,0.02150295488536358,-10.28443431854248
1.7294924684899085e+18,0.005432678386569023,-0.004056341480463743,-10.314776420593262
1.7294924684959086e+18,0.027713295072317123,0.06702610105276108,-10.301527976989746
1.7294924685049088e+18,0.003423442365601659,-0.007993367500603199,-10.226463317871094
1.729492468513909e+18,-0.008156249299645424,0.09644098579883575,-10.220727920532227
1.729492468519909e+18,-0.01963972859084606,0.05670053884387016,-10.319263458251953
1.7294924685289093e+18,0.03057660162448883,0.06759347021579742,-10.28565788269043
1.7294924685379095e+18,0.09791404753923416,-0.0022065360099077225,-10.197188377380371
1.7294924685439096e+18,-0.00914632249623537,0.06792851537466049,-10.189451217651367
1.7294924685529098e+18,-0.03056325577199459,-0.0671452134847641,-10.168701171875
1.72949246856191e+18,-0.04562028869986534,-0.07324369251728058,-10.15420150756836
1.7294924685679101e+18,-0.06842619180679321,-0.030826637521386147,-10.230263710021973
1.7294924685769103e+18,-0.03769923746585846,0.06273990869522095,-10.2240571975708
1.7294924685859105e+18,-0.00826767273247242,0.006709811743348837,-10.138607025146484
1.7294924685919107e+18,-0.026146387681365013,0.04206191748380661,-10.183045387268066
1.729492468606911e+18,0.010643952526152134,0.016674712300300598,-10.214399337768555
1.7294924686219113e+18,-0.0029200322460383177,0.05447964742779732,-10.156786918640137
1.7294924686309115e+18,0.012787625193595886,0.03096740134060383,-10.109734535217285
1.7294924686399117e+18,0.008792675100266933,-0.026480041444301605,-10.100811958312988
1.729492468648912e+18,-0.002184059005230665,-0.03816914185881615,-10.097328186035156
1.729492468654912e+18,0.06858532130718231,0.04613862186670303,-10.096755981445312
1.7294924686639122e+18,0.08293470740318298,-0.015702717006206512,-10.104944229125977
1.7294924686699123e+18,-0.030509913340210915,0.05530264601111412,-10.11414909362793
1.7294924686789125e+18,0.009235350415110588,-0.047155946493148804,-10.1051025390625
1.7294924686879127e+18,-0.08101088553667068,0.03720202296972275,-10.027719497680664
1.7294924686939128e+18,0.044987719506025314,0.02223990485072136,-10.058486938476562
1.729492468702913e+18,-0.028801148757338524,-0.099465012550354,-10.038249015808105
1.7294924687119132e+18,-0.03372436389327049,-0.027308810502290726,-10.028796195983887
1.7294924687179133e+18,0.049596283584833145,0.06324386596679688,-9.988133430480957
1.7294924687269135e+18,-0.03664661943912506,-0.02478000894188881,-10.002320289611816
1.7294924687359137e+18,0.05007133260369301,0.01883598044514656,-10.062505722045898
1.7294924687419139e+18,-0.029875658452510834,-0.04956186190247536,-9.95302677154541
1.729492468750914e+18,0.08268021792173386,-0.011047543957829475,-10.039593696594238
1.7294924687599142e+18,-0.010408504866063595,-0.03852228447794914,-9.98861312866211
1.7294924687659144e+18,-0.0070822639390826225,-0.03434164449572563,-9.997983932495117
1.7294924687749146e+18,0.011245520785450935,0.03772188350558281,-10.005837440490723
1.7294924687839148e+18,-0.04178762063384056,0.012366988696157932,-9.969175338745117
1.729492468789915e+18,-0.042486101388931274,-0.06811768561601639,-9.94999885559082
1.729492468798915e+18,0.013855142518877983,0.01824864186346531,-10.019926071166992
1.7294924688079153e+18,0.01678246259689331,-0.0005121722351759672,-9.9923095703125
1.7294924688139154e+18,-0.03720830753445625,0.014352330937981606,-9.947931289672852
1.7294924688229156e+18,-0.05268336832523346,0.0505649670958519,-9.995406150817871
1.7294924688319158e+18,-0.051676392555236816,-0.05878814309835434,-9.963537216186523
1.729492468840916e+18,-0.03042086772620678,0.01485326699912548,-9.863967895507812
1.729492468846916e+18,0.023349132388830185,0.042524244636297226,-9.927387237548828
1.7294924688559163e+18,0.007865739054977894,0.04829535260796547,-9.988295555114746
1.7294924688649165e+18,-0.006790757179260254,0.01623070426285267,-9.84692096710205
1.7294924688709166e+18,-0.02440565638244152,-0.024597279727458954,-9.909528732299805
1.7294924688799168e+18,-0.001989718060940504,-0.027371371164917946,-9.811651229858398
1.729492468888917e+18,0.0009785996517166495,-0.0014274849090725183,-9.86248779296875
1.729492468894917e+18,-0.04275277256965637,0.004271745681762695,-9.971699714660645
1.7294924689039173e+18,0.007765333633869886,0.09392014145851135,-10.008373260498047
1.7294924689129175e+18,0.017720377072691917,-0.02210921049118042,-9.98403549194336
1.7294924689189176e+18,-0.05074276030063629,-0.020694369450211525,-9.85805892944336
1.7294924689279178e+18,0.011764182709157467,0.04673364385962486,-9.925912857055664
1.729492468936918e+18,-0.0031931642442941666,0.026323461905121803,-9.869522094726562
1.7294924689429181e+18,-0.04681389778852463,0.10341949760913849,-9.906993865966797
1.7294924689519183e+18,0.02515323832631111,0.09975738823413849,-9.945377349853516
1.7294924689609185e+18,0.049870457500219345,9.616924216970801e-05,-9.894166946411133
1.7294924689669187e+18,-0.009658229537308216,-0.03881904110312462,-9.935513496398926
1.7294924689759188e+18,-0.03085722029209137,-0.01613919623196125,-9.91697883605957
1.729492468984919e+18,-0.01302292849868536,-0.02362687513232231,-9.921724319458008
1.7294924689909192e+18,0.05015043914318085,0.028421131893992424,-9.839617729187012
1.7294924689999194e+18,0.03599749132990837,0.01103353500366211,-9.897796630859375
1.7294924690059195e+18,-0.029310641810297966,0.06377135217189789,-9.894092559814453
1.7294924690149197e+18,0.008500568568706512,-0.008893361315131187,-9.844205856323242
1.7294924690239199e+18,0.01470000296831131,-0.04595407098531723,-9.853997230529785
1.72949246902992e+18,0.043919797986745834,-0.024727847427129745,-9.781364440917969
1.7294924690389202e+18,0.03047281876206398,-0.012798158451914787,-9.823617935180664
1.7294924690449203e+18,0.03302384167909622,0.03163159266114235,-9.767176628112793
1.7294924690539205e+18,-0.023141959682106972,-0.033965855836868286,-9.809760093688965
1.7294924690629207e+18,0.025272425264120102,0.009893287904560566,-9.787134170532227
1.729492469071921e+18,-0.062063589692115784,0.0009734402992762625,-9.842842102050781
1.729492469080921e+18,0.00371899944730103,0.05652093514800072,-9.848467826843262
1.7294924690929213e+18,0.09708759188652039,0.029966063797473907,-9.775890350341797
1.7294924690989215e+18,-0.11991893500089645,-0.07629112899303436,-9.8456449508667
1.7294924691079217e+18,-0.009929904714226723,-0.012988750822842121,-9.73731517791748
1.7294924691139218e+18,-0.004102630540728569,0.009101997129619122,-9.766392707824707
1.729492469122922e+18,-0.028774863108992577,-0.09553655982017517,-9.77525520324707
1.729492469128922e+18,-0.019697386771440506,-0.023455623537302017,-9.83831787109375
1.7294924691379223e+18,-0.004343654494732618,0.016575343906879425,-9.751190185546875
1.7294924691469225e+18,0.05466514825820923,-0.02248215489089489,-9.793041229248047
1.7294924691529226e+18,0.03167440742254257,0.028569208458065987,-9.792451858520508
1.7294924691619228e+18,0.022898538038134575,0.02439596876502037,-9.738275527954102
1.729492469167923e+18,0.0430511049926281,-0.007618576288223267,-9.819552421569824
1.7294924691769231e+18,-0.01720861718058586,-0.007317185401916504,-9.726280212402344
1.7294924691859233e+18,-0.009582022204995155,0.007888948544859886,-9.748366355895996
1.7294924691919235e+18,-0.04315544292330742,-0.02443939447402954,-9.829482078552246
1.7294924692009236e+18,0.005905861034989357,0.02196073904633522,-9.783713340759277
1.7294924692099238e+18,0.01738560199737549,-0.00012887618504464626,-9.739457130432129
1.729492469215924e+18,0.07101518660783768,-0.07907489687204361,-9.806977272033691
1.7294924692249242e+18,-0.046319227665662766,-0.017246203497052193,-9.81993293762207
1.7294924692339244e+18,0.016464361920952797,-0.03927106037735939,-9.694416046142578
1.7294924692399245e+18,-0.0750725120306015,-0.03387908637523651,-9.736898422241211
1.7294924692489247e+18,0.06169045343995094,-0.04163355380296707,-9.825631141662598
1.7294924692549248e+18,0.02864397130906582,-0.041044555604457855,-9.73469352722168
1.729492469263925e+18,-0.019870860502123833,-0.009943705052137375,-9.763203620910645
1.729492469269925e+18,0.014482904225587845,0.002387882675975561,-9.774872779846191
1.7294924692789253e+18,-0.01809692196547985,-0.032459091395139694,-9.734840393066406
1.7294924692849254e+18,0.0023762688506394625,-0.03753120079636574,-9.759490013122559
1.7294924692939256e+18,-0.05829761549830437,0.059909284114837646,-9.6935396194458
1.7294924693029258e+18,-0.027706334367394447,-0.004744297359138727,-9.753927230834961
1.729492469308926e+18,0.017475539818406105,0.006820153910666704,-9.712871551513672
1.7294924693179261e+18,-0.07317337393760681,-0.06604385375976562,-9.763689994812012
1.7294924693269263e+18,-0.010059880092740059,-0.0002453381894156337,-9.745223999023438
1.7294924693329265e+18,0.05457029119133949,0.03354046866297722,-9.79384994506836
1.7294924693419267e+18,-0.016342053189873695,-0.052885670214891434,-9.762153625488281
1.7294924693479268e+18,-0.012130961753427982,0.029652314260601997,-9.73421859741211
1.729492469356927e+18,-0.05216284841299057,-0.06002059951424599,-9.706353187561035
1.7294924693659272e+18,-0.012702344916760921,0.04567395895719528,-9.82690143585205
1.7294924693719273e+18,0.003570259315893054,-0.007312443107366562,-9.757184982299805
1.7294924693809275e+18,-0.13680429756641388,0.04189959168434143,-9.711101531982422
1.7294924693899277e+18,0.008987294510006905,0.08412420004606247,-9.755021095275879
1.729492469398928e+18,-0.012601122260093689,0.028779176995158195,-9.708041191101074
1.729492469407928e+18,-0.014204242266714573,0.024407239630818367,-9.769745826721191
1.7294924694199283e+18,0.024806711822748184,-0.037620123475790024,-9.694503784179688
1.7294924694289285e+18,-0.017626307904720306,0.02956146001815796,-9.813672065734863
1.7294924694379287e+18,-0.02538013458251953,-0.015678269788622856,-9.7278470993042
1.729492469446929e+18,-0.05059186741709709,0.06315627694129944,-9.705894470214844
1.729492469455929e+18,-0.034452345222234726,-0.06596735119819641,-9.756178855895996
1.7294924694679293e+18,0.06550765782594681,-0.002017526887357235,-9.728720664978027
1.7294924694769295e+18,-0.02384011261165142,-0.00042578665306791663,-9.651737213134766
1.7294924694829297e+18,0.005968848709017038,-0.011048611253499985,-9.805578231811523
1.7294924694919299e+18,0.02102358266711235,0.09517775475978851,-9.758461952209473
1.72949246950093e+18,-0.05271945521235466,0.016490083187818527,-9.83300495147705
1.7294924695069302e+18,-0.06447316706180573,0.0352993980050087,-9.908674240112305
1.7294924695159304e+18,-0.0035692397505044937,-0.02456989511847496,-9.831966400146484
1.7294924695219305e+18,-0.01592898555099964,0.005676988512277603,-9.894323348999023
1.7294924695309307e+18,-0.04845154285430908,0.001669872086495161,-9.824066162109375
1.729492469539931e+18,-0.018361443653702736,-0.055701375007629395,-9.848042488098145
1.729492469545931e+18,0.029764331877231598,0.017905209213495255,-9.779411315917969
1.7294924695549312e+18,0.012292182072997093,0.03284312039613724,-9.864153861999512
1.7294924695639314e+18,0.05156482756137848,0.09305696934461594,-9.777899742126465
1.7294924695729316e+18,0.041269268840551376,-0.04752466827630997,-9.817420959472656
1.7294924695789317e+18,0.011684166267514229,0.082724429666996,-9.841307640075684
1.729492469587932e+18,-0.04613008722662926,0.04598767310380936,-9.801633834838867
1.729492469593932e+18,0.007467593997716904,0.016763541847467422,-9.718792915344238
1.7294924696029322e+18,0.03378388285636902,0.01378067210316658,-9.812079429626465
1.7294924696119324e+18,0.011932256631553173,0.08062169700860977,-9.77250862121582
1.7294924696179325e+18,0.015814336016774178,0.034813594073057175,-9.666166305541992
1.7294924696269327e+18,-0.005997926462441683,-0.08471249788999557,-9.799930572509766
1.729492469635933e+18,-0.003254806622862816,0.06853777915239334,-9.750475883483887
1.729492469644933e+18,-0.05011843144893646,-0.048241861164569855,-9.847824096679688
1.7294924696539333e+18,-0.010220298543572426,0.02735568769276142,-9.760589599609375
1.7294924696599334e+18,0.006308873649686575,-0.03163189813494682,-9.812437057495117
1.7294924696689336e+18,0.007118534296751022,-0.027657978236675262,-9.817848205566406
1.7294924696779338e+18,-0.024198152124881744,-0.030989790335297585,-9.797873497009277
1.729492469683934e+18,-0.02147664688527584,0.04911046847701073,-9.737488746643066
1.7294924696929341e+18,0.04236956685781479,0.03147697076201439,-9.716657638549805
1.7294924697019343e+18,0.0948910340666771,-0.023217452690005302,-9.813084602355957
1.7294924697109345e+18,-0.0083976611495018,-0.03638026863336563,-9.759191513061523
1.7294924697199347e+18,-0.035161152482032776,0.025130143389105797,-9.781702041625977
1.7294924697259348e+18,0.10188382863998413,-0.014801422134041786,-9.787915229797363
1.729492469734935e+18,0.02240918017923832,0.055741939693689346,-9.763418197631836
1.7294924697409352e+18,-0.03145269677042961,0.03019324131309986,-9.785022735595703
1.7294924697499354e+18,0.004110392648726702,0.0800333023071289,-9.78481674194336
1.7294924697589356e+18,0.044652484357357025,0.013652021065354347,-9.780925750732422
1.7294924697649357e+18,0.03776625543832779,0.029678862541913986,-9.74755573272705
1.7294924697739359e+18,-0.04207601025700569,-0.0680447667837143,-9.67825698852539
1.729492469782936e+18,-0.03571322560310364,-0.020003806799650192,-9.731524467468262
1.7294924697889362e+18,-0.03382585942745209,-0.04269101098179817,-9.81790828704834
1.7294924697979364e+18,-0.01066898088902235,-0.044794801622629166,-9.75704574584961
1.7294924698069366e+18,0.019862335175275803,-0.08825436234474182,-9.74832820892334
1.7294924698129367e+18,0.027567729353904724,0.008536215871572495,-9.70825481414795
1.729492469821937e+18,-0.029159046709537506,-0.008627353236079216,-9.748409271240234
1.729492469827937e+18,-0.02214018814265728,0.04445113241672516,-9.783402442932129
1.7294924698369372e+18,0.11176378279924393,-0.009330334141850471,-9.667235374450684
1.7294924698459374e+18,-0.018181031569838524,-0.01599697954952717,-9.674286842346191
1.7294924698519375e+18,-0.006806389428675175,-0.026675306260585785,-9.806156158447266
1.7294924698609377e+18,-0.012940467335283756,-0.00245875446125865,-9.698771476745605
1.729492469869938e+18,0.009882026351988316,-0.040413279086351395,-9.760210990905762
1.729492469875938e+18,-0.0421530045568943,0.08524615317583084,-9.795628547668457
1.7294924698849382e+18,0.014479445293545723,-0.008100373670458794,-9.729443550109863
1.7294924698939384e+18,-0.022017421200871468,0.11064524948596954,-9.775182723999023
1.7294924698999386e+18,0.007702293340116739,0.019347447901964188,-9.816009521484375
1.7294924699089388e+18,-0.05727030709385872,0.03359118476510048,-9.78144645690918
1.729492469917939e+18,0.04812997207045555,-0.041515789926052094,-9.70629596710205
1.729492469923939e+18,0.053009867668151855,-0.062127843499183655,-9.725518226623535
1.7294924699329393e+18,0.0442279614508152,-0.0029813447035849094,-9.750419616699219
1.7294924699389394e+18,-0.011972635984420776,0.013954713009297848,-9.797053337097168
1.7294924699479396e+18,0.0006481820601038635,-0.08074411749839783,-9.72797679901123
1.7294924699569398e+18,-0.050185371190309525,0.009247604757547379,-9.7402982711792
1.72949246996294e+18,0.004525372758507729,-0.05667242780327797,-9.755887031555176
1.72949246997194e+18,0.07585643231868744,0.05204111710190773,-9.733635902404785
1.7294924699809403e+18,0.0910879448056221,-0.02346457913517952,-9.668096542358398
1.7294924699869404e+18,0.038966719061136246,-0.04635196551680565,-9.656205177307129
1.7294924699959406e+18,0.013198845088481903,-0.005002567544579506,-9.734930038452148
1.7294924700049408e+18,-0.031142210587859154,-0.00022527825785800815,-9.706825256347656
1.729492470013941e+18,0.034710295498371124,-0.008393571712076664,-9.674064636230469
1.729492470019941e+18,0.12358366698026657,-0.0353977270424366,-9.64858341217041
1.7294924700289413e+18,0.09283297508955002,0.03885209187865257,-9.773306846618652
1.7294924700379415e+18,-0.05984720215201378,0.022975420579314232,-9.779537200927734
1.7294924700439416e+18,0.02080484852194786,-0.02595246583223343,-9.791683197021484
1.7294924700529418e+18,-0.011084158904850483,0.12666231393814087,-9.738320350646973
1.729492470058942e+18,0.04583204537630081,0.09091101586818695,-9.757392883300781
1.7294924700679421e+18,-0.0029577291570603848,-0.005277938675135374,-9.711470603942871
1.7294924700769423e+18,-0.023499052971601486,-0.028438206762075424,-9.67585563659668
1.7294924700889426e+18,0.015569922514259815,0.03748068958520889,-9.697165489196777
1.7294924701009428e+18,0.05167363956570625,-0.022077083587646484,-9.667478561401367
1.729492470109943e+18,-0.002759627066552639,-0.04782221093773842,-9.68034553527832
1.7294924701189432e+18,0.06299901753664017,0.009125422686338425,-9.738287925720215
1.7294924701249434e+18,-0.02051575481891632,-0.04348615184426308,-9.740161895751953
1.7294924701339436e+18,0.006240403279662132,-0.011995707638561726,-9.709840774536133
1.7294924701429437e+18,0.035699136555194855,-0.004295085556805134,-9.790921211242676
1.729492470148944e+18,-0.02412748709321022,0.03413553908467293,-9.694859504699707
1.729492470157944e+18,-0.13244488835334778,0.04307306185364723,-9.748624801635742
1.7294924701669443e+18,0.0018458900740370154,-0.027783287689089775,-9.74020004272461
1.7294924701729444e+18,-0.059423044323921204,-0.00789334811270237,-9.772071838378906
1.7294924701819446e+18,-0.09095955640077591,0.08674383163452148,-9.733070373535156
1.7294924701879447e+18,-0.002785429824143648,0.003392053535208106,-9.72927474975586
1.729492470196945e+18,-0.03508736565709114,0.043154336512088776,-9.734991073608398
1.729492470205945e+18,0.012472116388380527,-0.0313885323703289,-9.699568748474121
1.7294924702119452e+18,0.06139764562249184,-0.04021235927939415,-9.683300018310547
1.7294924702179453e+18,-0.0002084814477711916,0.032114699482917786,-9.685389518737793
1.7294924702269455e+18,-0.011667663231492043,0.05398952588438988,-9.793096542358398
1.7294924702359457e+18,0.0564417727291584,0.0038167124148458242,-9.705230712890625
1.7294924702419459e+18,-0.0028234554920345545,0.09502043575048447,-9.667530059814453
1.729492470250946e+18,0.02161708101630211,0.020003942772746086,-9.645793914794922
1.7294924702599462e+18,0.006113179959356785,0.013582814484834671,-9.680890083312988
1.7294924702659464e+18,-0.1350945234298706,-0.0634763315320015,-9.71545696258545
1.7294924702749466e+18,0.016929147765040398,0.017200198024511337,-9.689600944519043
1.7294924702809467e+18,-0.008555754087865353,0.05216014012694359,-9.724675178527832
1.729492470289947e+18,-0.00930566806346178,-0.05625375360250473,-9.710349082946777
1.729492470295947e+18,0.037193745374679565,-0.037319257855415344,-9.705913543701172
1.7294924703049472e+18,-0.024370433762669563,-0.07909055799245834,-9.79370403289795
1.7294924703139474e+18,-0.02801772579550743,0.024548780173063278,-9.756351470947266
1.7294924703199475e+18,0.02625599317252636,-0.0046596527099609375,-9.770575523376465
1.7294924703289477e+18,-0.008007768541574478,0.017902487888932228,-9.707134246826172
1.7294924703349478e+18,0.0008740173070691526,0.04706254601478577,-9.69291877746582
1.729492470343948e+18,0.03663496673107147,-0.001309864455834031,-9.739385604858398
1.7294924703529482e+18,-0.03841773048043251,0.01483854465186596,-9.765350341796875
1.7294924703589484e+18,-0.048464976251125336,-0.02021770179271698,-9.714818000793457
1.7294924703679485e+18,0.0015215049497783184,0.003937330096960068,-9.741171836853027
1.7294924703769487e+18,-0.04319312795996666,-0.017561733722686768,-9.844346046447754
1.7294924703829489e+18,-0.027854271233081818,-0.05358187481760979,-9.749564170837402
1.729492470391949e+18,0.011812933720648289,-0.04362071305513382,-9.783227920532227
1.7294924704009492e+18,-0.0013720330316573381,-0.013604937121272087,-9.780512809753418
1.7294924704069494e+18,0.01797344721853733,-0.08934036642313004,-9.732001304626465
1.7294924704159496e+18,0.026088042184710503,-0.030928239226341248,-9.673676490783691
1.7294924704219497e+18,-0.0002093367511406541,-0.005929274018853903,-9.734326362609863
1.72949247043095e+18,0.017198098823428154,0.0015284568071365356,-9.702645301818848
1.72949247043995e+18,-0.048074740916490555,-0.028773510828614235,-9.721139907836914
1.7294924704459502e+18,-0.006975861731916666,-0.028387797996401787,-9.804903984069824
1.7294924704549504e+18,0.015222514048218727,0.1583912968635559,-9.72592830657959
1.7294924704609505e+18,-0.0005077830865047872,-0.09375785291194916,-9.724604606628418
1.7294924704699507e+18,0.04562583193182945,-0.039029061794281006,-9.747719764709473
1.729492470478951e+18,-0.005637376569211483,-0.0024416942615062,-9.811563491821289
1.729492470487951e+18,0.024055352434515953,-0.06121170520782471,-9.77150821685791
1.7294924704969513e+18,0.024119624868035316,0.05435383692383766,-9.735244750976562
1.7294924705059515e+18,0.05092616379261017,-0.10466400533914566,-9.738359451293945
1.7294924705149517e+18,-0.07186637073755264,0.048228729516267776,-9.73707103729248
1.7294924705209518e+18,-0.04440845549106598,0.06506971269845963,-9.77701473236084
1.729492470529952e+18,-0.007299752905964851,0.050100177526474,-9.724992752075195
1.7294924705389522e+18,-0.08263526856899261,-0.07005365937948227,-9.772534370422363
1.7294924705479524e+18,-0.03472093865275383,0.06770306080579758,-9.78311824798584
1.7294924705569526e+18,-0.029239853844046593,-0.0008815624751150608,-9.694003105163574
1.7294924705629527e+18,0.0005296138697303832,0.0849413201212883,-9.702723503112793
1.729492470571953e+18,0.013023080304265022,0.012023468501865864,-9.751309394836426
1.729492470580953e+18,-0.039530254900455475,0.06443838775157928,-9.767400741577148
1.7294924705899533e+18,0.05684073641896248,-0.019677549600601196,-9.74894905090332
1.7294924705959534e+18,0.040040962398052216,-0.05230051279067993,-9.690917015075684
1.7294924706049536e+18,0.055225759744644165,0.012322832830250263,-9.760929107666016
1.7294924706109537e+18,-0.027089795097708702,-0.057471614331007004,-9.78897476196289
1.729492470619954e+18,-0.0031221515964716673,-0.021294523030519485,-9.683074951171875
1.729492470628954e+18,-0.05557410046458244,-0.0004096374614164233,-9.7814302444458
1.7294924706379543e+18,-0.042443498969078064,-0.04583974927663803,-9.717508316040039
1.7294924706439544e+18,-0.09555413573980331,-0.023446982726454735,-9.736233711242676
1.7294924706529546e+18,0.0037342614959925413,-0.012128914706408978,-9.760287284851074
1.7294924706589548e+18,0.03971036896109581,0.009615293703973293,-9.724869728088379
1.729492470667955e+18,0.04899595305323601,0.011842307634651661,-9.665952682495117
1.729492470673955e+18,-0.015508822165429592,0.03144671767950058,-9.754240036010742
1.7294924706829553e+18,-0.005633889231830835,0.016947651281952858,-9.71040153503418
1.7294924706919555e+18,-0.027895886451005936,-0.007209768984466791,-9.741355895996094
1.7294924706979556e+18,0.039580121636390686,-0.011338579468429089,-9.737373352050781
1.7294924707069558e+18,0.022242305800318718,-0.05283065512776375,-9.77817153930664
1.729492470715956e+18,-0.0031411838717758656,0.034550268203020096,-9.780105590820312
1.729492470721956e+18,-0.05247918888926506,-0.040209319442510605,-9.849587440490723
1.7294924707309563e+18,0.03470201417803764,0.020216569304466248,-9.74431324005127
1.7294924707399565e+18,-0.06524653732776642,-0.01812993735074997,-9.77673053741455
1.7294924707459566e+18,0.059247661381959915,-0.006918018683791161,-9.685917854309082
1.7294924707549568e+18,-0.036091722548007965,-0.01983516290783882,-9.727397918701172
1.729492470763957e+18,0.0241024661809206,-0.022206204012036324,-9.747358322143555
1.729492470769957e+18,0.050592876970767975,0.017200464382767677,-9.714426040649414
1.7294924707789573e+18,-0.0750269889831543,-0.06466550379991531,-9.74051570892334
1.7294924707879575e+18,-0.026697054505348206,-0.032449714839458466,-9.802140235900879
1.7294924707939576e+18,0.06591625511646271,-0.03109201230108738,-9.733917236328125
1.7294924708029578e+18,0.0021477609407156706,-0.005454546771943569,-9.757322311401367
1.729492470811958e+18,-0.07972899824380875,0.019316643476486206,-9.831466674804688
1.7294924708179581e+18,-0.00840090960264206,0.019171928986907005,-9.766889572143555
1.7294924708269583e+18,0.10172531008720398,0.021738149225711823,-9.777605056762695
1.7294924708359585e+18,-0.0333077535033226,-0.04054778069257736,-9.731330871582031
1.7294924708449587e+18,-0.048609938472509384,0.0064926124177873135,-9.796497344970703
1.7294924708509588e+18,-0.01746462844312191,0.07087698578834534,-9.727420806884766
1.729492470859959e+18,-0.06565946340560913,-0.04314175248146057,-9.825582504272461
1.7294924708719593e+18,0.0006128265522420406,-0.029275672510266304,-9.780034065246582
1.7294924708809595e+18,-0.07276458293199539,0.018220480531454086,-9.68311882019043
1.7294924708899597e+18,0.0012189202243462205,-0.030830521136522293,-9.683185577392578
1.7294924708959598e+18,-0.03761949762701988,-0.06106587126851082,-9.79626178741455
1.72949247090496e+18,-0.02706076391041279,0.01258227601647377,-9.74698543548584
1.72949247091096e+18,0.028575874865055084,-0.03393831104040146,-9.73863697052002
1.7294924709199603e+18,-0.037512194365262985,-0.05790228024125099,-9.73611831665039
1.7294924709289605e+18,0.10986211150884628,0.03784860298037529,-9.70113754272461
1.7294924709379607e+18,-0.011133651249110699,0.008391532115638256,-9.760430335998535
1.7294924709439608e+18,-0.046440087258815765,-0.021231679245829582,-9.765457153320312
1.729492470952961e+18,-0.07645203918218613,0.019205188378691673,-9.709635734558105
1.7294924709619612e+18,0.002026589587330818,0.015365242026746273,-9.791301727294922
1.7294924709709614e+18,-0.01491798460483551,-0.03403563052415848,-9.779647827148438
1.7294924709799616e+18,-0.016084885224699974,0.08442606031894684,-9.732972145080566
1.7294924709889618e+18,-0.0007220336701720953,0.01844707503914833,-9.81249713897705
1.729492470997962e+18,-0.015890533104538918,0.061732251197099686,-9.794075012207031
1.729492471003962e+18,0.06377605348825455,-0.035432927310466766,-9.743465423583984
1.7294924710129623e+18,-0.02378743514418602,0.013737422414124012,-9.728976249694824
1.7294924710219625e+18,0.029498867690563202,-0.0070283724926412106,-9.778993606567383
1.7294924710279626e+18,-0.0002626903005875647,-0.01880105398595333,-9.771376609802246
1.7294924710369628e+18,0.0033848434686660767,-0.012465612962841988,-9.761012077331543
1.729492471045963e+18,0.05049748718738556,0.009240037761628628,-9.782557487487793
1.7294924710519631e+18,-0.05325984209775925,-0.0408611036837101,-9.790128707885742
1.7294924710609633e+18,0.002675957977771759,-0.05036163702607155,-9.813365936279297
1.7294924710699635e+18,0.005033443216234446,0.05394630879163742,-9.744898796081543
1.7294924710759636e+18,-0.038839519023895264,0.020753759890794754,-9.802045822143555
1.7294924710849638e+18,0.02638157829642296,-0.004122718703001738,-9.784575462341309
1.729492471093964e+18,-0.00552375428378582,-0.01445862092077732,-9.779624938964844
1.7294924710999642e+18,-0.03505788743495941,0.00784337893128395,-9.756844520568848
1.7294924711089644e+18,-0.017695188522338867,0.023628249764442444,-9.836976051330566
1.7294924711149645e+18,0.00429458636790514,-0.005546213127672672,-9.861377716064453
1.7294924711239647e+18,-0.014113896526396275,0.10988292098045349,-9.80781078338623
1.7294924711329649e+18,-0.027439894154667854,-0.0922420471906662,-9.787420272827148
1.729492471138965e+18,0.027787666767835617,-0.0012843359727412462,-9.741449356079102
1.7294924711479652e+18,0.04238768666982651,-0.029381023719906807,-9.770288467407227
1.7294924711539653e+18,0.026243170723319054,-0.08074557036161423,-9.75869083404541
1.7294924711629655e+18,-0.03340893238782883,0.10156939178705215,-9.850924491882324
1.7294924711719657e+18,-0.014657584019005299,0.029249588027596474,-9.77249526977539
1.729492471180966e+18,0.05446114018559456,-0.08499626070261002,-9.881914138793945
1.729492471186966e+18,0.007351997774094343,0.015131726861000061,-9.79928970336914
1.7294924711959662e+18,-0.051875460892915726,0.003096784930676222,-9.755902290344238
1.7294924712049664e+18,-0.027889110147953033,0.0037611613515764475,-9.800732612609863
1.7294924712139666e+18,0.043903496116399765,0.0012876709224656224,-9.756682395935059
1.7294924712199667e+18,-0.060767482966184616,0.04688514396548271,-9.853935241699219
1.729492471228967e+18,-0.016219202429056168,0.023168733343482018,-9.783172607421875
1.729492471234967e+18,-0.010667651891708374,0.05501957982778549,-9.67888069152832
1.7294924712439672e+18,-0.03362375125288963,0.024875802919268608,-9.774862289428711
1.7294924712499674e+18,0.05713865906000137,0.029810016974806786,-9.860556602478027
1.7294924712589676e+18,-0.008073724806308746,-0.007688452489674091,-9.80344295501709
1.7294924712649677e+18,0.002715053502470255,0.08213675767183304,-9.847030639648438
1.7294924712739679e+18,-0.020898716524243355,0.004572405945509672,-9.798504829406738
1.729492471279968e+18,0.02185354009270668,0.0022265873849391937,-9.820056915283203
1.7294924712889682e+18,0.04359135404229164,-0.0035102353431284428,-9.761284828186035
1.7294924712949683e+18,-0.007113945670425892,0.08472830057144165,-9.799172401428223
1.7294924713039685e+18,0.020250562578439713,-0.029511626809835434,-9.828712463378906
1.7294924713129687e+18,0.006665503606200218,-0.014358120039105415,-9.836159706115723
1.7294924713189688e+18,-0.04826316609978676,-0.012580526061356068,-9.70716667175293
1.729492471327969e+18,0.094459168612957,-0.020383458584547043,-9.790345191955566
1.7294924713369692e+18,0.07641339302062988,0.015225804410874844,-9.72336483001709
1.7294924713429693e+18,-0.01813027635216713,-0.0039499313570559025,-9.846107482910156
1.7294924713519695e+18,-0.007636448368430138,-0.05411291494965553,-9.817428588867188
1.7294924713579697e+18,-0.008620262145996094,0.027787497267127037,-9.775419235229492
1.7294924713669699e+18,0.04740682616829872,0.03577989712357521,-9.84046459197998
1.72949247137597e+18,-0.003354830201715231,-0.038263820111751556,-9.851665496826172
1.7294924713819702e+18,-0.006449159234762192,0.011606170795857906,-9.766634941101074
1.7294924713909704e+18,0.049230143427848816,0.0003967455413658172,-9.798746109008789
1.7294924714029706e+18,0.05082380399107933,0.004723035264760256,-9.794353485107422
1.7294924714119708e+18,-0.09499874711036682,0.0041520376689732075,-9.835140228271484
1.729492471420971e+18,-0.04313887655735016,-0.03978218883275986,-9.73393440246582
1.7294924714299712e+18,0.004116400610655546,-0.004992062225937843,-9.775330543518066
1.7294924714359713e+18,-0.09136682748794556,-0.0783141553401947,-9.812814712524414
1.7294924714479716e+18,0.06870836019515991,0.039159391075372696,-9.778358459472656
1.7294924714569718e+18,0.09211075305938721,-0.010862620547413826,-9.756612777709961
1.729492471462972e+18,-0.07098913192749023,-0.01942143402993679,-9.744622230529785
1.729492471471972e+18,0.05501382425427437,0.09804978966712952,-9.82776165008545
1.7294924714869724e+18,0.00866114441305399,0.0229300856590271,-9.808347702026367
1.7294924714959726e+18,-0.026377035304903984,0.018399979919195175,-9.813980102539062
1.7294924715049728e+18,0.018486039713025093,-0.03219032660126686,-9.761160850524902
1.729492471513973e+18,0.006986820604652166,-0.01625640317797661,-9.839390754699707
1.7294924715259732e+18,0.03161848336458206,0.0010526047553867102,-9.795527458190918
1.7294924715409736e+18,-0.020632514730095863,-0.027789216488599777,-9.833559036254883
1.7294924715499738e+18,-0.01803675666451454,-0.05113696679472923,-9.748848915100098
1.729492471555974e+18,0.011040023528039455,0.01378258503973484,-9.809552192687988
1.729492471564974e+18,-0.03499440476298332,-0.03905486688017845,-9.751856803894043
1.7294924715739743e+18,-0.05070415139198303,-0.06640419363975525,-9.776339530944824
1.7294924715799744e+18,-0.0915638729929924,-0.021321045234799385,-9.798932075500488
1.7294924715889746e+18,0.016536176204681396,0.036313798278570175,-9.792547225952148
1.7294924715949747e+18,0.04606291651725769,-0.013296431861817837,-9.832354545593262
1.729492471603975e+18,0.0013557086931541562,-0.027054525911808014,-9.802468299865723
1.729492471612975e+18,-0.007565905340015888,0.03212575241923332,-9.82279109954834
1.7294924716219753e+18,0.027529645711183548,0.026656610891222954,-9.77925968170166
1.7294924716279754e+18,-0.03278988227248192,0.03090079501271248,-9.83333683013916
1.7294924716369756e+18,-0.02456912212073803,0.031035814434289932,-9.757365226745605
1.7294924716459758e+18,0.04256638512015343,-0.013146105222404003,-9.774505615234375
1.729492471651976e+18,-0.05573004111647606,-0.011346624232828617,-9.807588577270508
1.729492471660976e+18,-0.018125658854842186,-0.03378801792860031,-9.84926700592041
1.7294924716669763e+18,0.03472629934549332,-0.03358892351388931,-9.815103530883789
1.7294924716759764e+18,0.010971006006002426,0.05072338134050369,-9.751656532287598
1.7294924716849766e+18,-0.07065140455961227,-0.0685068666934967,-9.847039222717285
1.7294924716939768e+18,-0.02413150668144226,-0.02502419799566269,-9.830972671508789
1.729492471702977e+18,0.03784288465976715,0.020919332280755043,-9.809876441955566
1.7294924717089772e+18,-0.013825627975165844,0.06463620811700821,-9.74524211883545
1.7294924717179773e+18,0.03304096683859825,-0.03874396160244942,-9.811481475830078
1.7294924717239775e+18,0.05654590204358101,0.08097957819700241,-9.82293701171875
1.7294924717329777e+18,-0.011686946265399456,-0.08968878537416458,-9.752914428710938
1.7294924717419779e+18,0.027112789452075958,-0.009417057037353516,-9.790606498718262
1.729492471753978e+18,0.0036305084358900785,-0.05074489116668701,-9.843332290649414
1.7294924717599782e+18,-0.0072508337907493114,0.01003499049693346,-9.795222282409668
1.7294924717689784e+18,-0.040519874542951584,0.1068621277809143,-9.859391212463379
1.7294924717779786e+18,-0.030726579949259758,-0.023865146562457085,-9.798089027404785
1.7294924717869788e+18,-0.010677668265998363,-0.0008452481706626713,-9.857026100158691
1.729492471792979e+18,-0.0015043033054098487,0.09700111299753189,-9.836647033691406
1.7294924718079793e+18,0.028012942522764206,-0.09157861024141312,-9.798771858215332
1.7294924718169795e+18,0.03138517960906029,-0.010753015987575054,-9.829829216003418
1.7294924718259796e+18,0.0923127830028534,-0.02081577479839325,-9.806654930114746
1.7294924718349798e+18,0.030853955075144768,0.04886091500520706,-9.809374809265137
1.72949247184098e+18,0.003728274954482913,-0.05275909975171089,-9.777092933654785
1.7294924718499802e+18,0.051004841923713684,0.023175209760665894,-9.737067222595215
1.7294924718589804e+18,0.05096757039427757,0.044256724417209625,-9.825843811035156
1.7294924718649805e+18,0.023821348324418068,0.010806483216583729,-9.832172393798828
1.7294924718739807e+18,-0.020981403067708015,0.08948060125112534,-9.799942970275879
1.7294924718829809e+18,-0.059077758342027664,0.0627293586730957,-9.751053810119629
1.729492471891981e+18,-0.0747302994132042,0.01866098679602146,-9.777619361877441
1.7294924719009812e+18,-0.012512101791799068,-0.03214838355779648,-9.801359176635742
1.7294924719099814e+18,-0.049463074654340744,-0.02908405475318432,-9.81139850616455
1.7294924719189816e+18,-0.04171740263700485,-0.049694355577230453,-9.801508903503418
1.7294924719279818e+18,-0.006089008878916502,0.10738217830657959,-9.803086280822754
1.729492471936982e+18,0.0893273875117302,-0.07097311317920685,-9.780314445495605
1.7294924719429821e+18,-0.02853916957974434,0.017278632149100304,-9.775924682617188
1.7294924719519823e+18,-0.01731026917695999,-0.04774847254157066,-9.81393051147461
1.7294924719609825e+18,0.016618913039565086,-0.01842004805803299,-9.784053802490234
1.7294924719699827e+18,0.11761676520109177,0.04857895150780678,-9.7677583694458
1.729492471978983e+18,-0.0030055760871618986,0.06447719782590866,-9.792024612426758
1.729492471984983e+18,0.009113285690546036,-0.017731910571455956,-9.710305213928223
1.7294924719939832e+18,-0.07027189433574677,0.02457401715219021,-9.779051780700684
1.7294924720029834e+18,0.007392635568976402,-0.021722784265875816,-9.671062469482422
1.7294924720119836e+18,-0.0005447573494166136,-0.021798687055706978,-9.863358497619629
1.7294924720179837e+18,0.011366481892764568,0.02234448492527008,-9.797857284545898
1.729492472026984e+18,-0.05098406597971916,0.052347373217344284,-9.874480247497559
1.7294924720359841e+18,0.04524936527013779,-0.028604889288544655,-9.831841468811035
1.7294924720449843e+18,0.042259570211172104,-0.009138466790318489,-9.784093856811523
1.7294924720539845e+18,0.08612880110740662,-0.020290642976760864,-9.791048049926758
1.7294924720629847e+18,-0.024175800383090973,-0.017800986766815186,-9.806939125061035
1.729492472071985e+18,0.004356927238404751,-0.00922996737062931,-9.761643409729004
1.729492472080985e+18,0.004879847634583712,-0.006271797232329845,-9.804215431213379
1.7294924720899853e+18,-0.09148745238780975,-0.020956041291356087,-9.79108715057373
1.7294924720959854e+18,0.03137655183672905,0.08357647061347961,-9.801340103149414
1.7294924721049856e+18,0.06965530663728714,-0.0030342640820890665,-9.776121139526367
1.7294924721139858e+18,-0.008921226486563683,-0.03383161872625351,-9.771766662597656
1.729492472119986e+18,0.01186077855527401,0.013674949295818806,-9.743541717529297
1.729492472128986e+18,0.0049102529883384705,0.06352953612804413,-9.753480911254883
1.7294924721349862e+18,0.07407313585281372,-0.048309218138456345,-9.854884147644043
1.7294924721439864e+18,-0.03488590940833092,-0.026046492159366608,-9.797436714172363
1.7294924721529866e+18,0.04607156291604042,-0.037817999720573425,-9.875457763671875
1.7294924721619868e+18,-0.03390306979417801,-0.005104090087115765,-9.763431549072266
1.729492472170987e+18,-0.00030038648401387036,-0.00877485889941454,-9.83938980102539
1.7294924721769871e+18,-0.0669267475605011,0.039480023086071014,-9.832062721252441
1.7294924721859873e+18,-0.021726828068494797,0.016107633709907532,-9.749042510986328
1.7294924721949875e+18,-0.02565377578139305,0.044771481305360794,-9.798360824584961
1.7294924722009876e+18,-0.009546235203742981,0.022512953728437424,-9.815627098083496
1.7294924722099878e+18,0.04994981363415718,0.009701653383672237,-9.820162773132324
1.729492472218988e+18,0.059489089995622635,-0.0265091210603714,-9.802331924438477
1.7294924722279882e+18,-0.041475169360637665,-0.035845160484313965,-9.790000915527344
1.7294924722339884e+18,-0.028008881956338882,0.07419174909591675,-9.875298500061035
1.7294924722429885e+18,0.06654042750597,-0.06323475390672684,-9.785456657409668
1.7294924722519887e+18,-0.05292250216007233,-0.0584225207567215,-9.795446395874023
1.7294924722579889e+18,-0.03460567444562912,-0.04204386845231056,-9.777554512023926
1.729492472266989e+18,-0.03348175436258316,0.02450758032500744,-9.793327331542969
1.7294924722759892e+18,0.024635357782244682,-0.03579092025756836,-9.879853248596191
1.7294924722849894e+18,0.030032489448785782,0.009113683365285397,-9.781550407409668
1.7294924722909896e+18,0.039542607963085175,-0.011279932223260403,-9.818263053894043
1.7294924722999898e+18,-0.04146859049797058,-0.010540274903178215,-9.788220405578613
1.72949247230599e+18,0.03397476300597191,0.06772690266370773,-9.74962329864502
1.72949247231499e+18,0.02493533119559288,0.044519033282995224,-9.819238662719727
1.7294924723239903e+18,0.024629518389701843,-0.005215567536652088,-9.776524543762207
1.7294924723299904e+18,-0.0429324135184288,0.07803194224834442,-9.75589656829834
1.7294924723389906e+18,-0.05555614084005356,-0.012867250479757786,-9.71668815612793
1.7294924723479908e+18,-0.045332781970500946,-0.011328686028718948,-9.747970581054688
1.729492472356991e+18,0.004270855337381363,0.017524544149637222,-9.880254745483398
1.729492472362991e+18,-0.004388970788568258,-0.05260347202420235,-9.786712646484375
1.7294924723719913e+18,0.030929768458008766,0.018426543101668358,-9.873370170593262
1.7294924723779914e+18,0.0019767761696130037,-0.015824774280190468,-9.886009216308594
1.7294924723869916e+18,0.0011176698608323932,-0.059332262724637985,-9.81348991394043
1.7294924723959918e+18,-0.08978765457868576,0.0008105574524961412,-9.800817489624023
1.729492472401992e+18,0.0023234409745782614,0.06498433649539948,-9.849226951599121
1.729492472410992e+18,0.01918812468647957,-0.008384290151298046,-9.881367683410645
1.7294924724169923e+18,0.0229684729129076,-0.0071311211213469505,-9.811247825622559
1.7294924724259924e+18,0.01754707098007202,-0.006342372391372919,-9.869181632995605
1.7294924724349926e+18,-0.06737682968378067,0.02055889368057251,-9.829010963439941
1.7294924724409928e+18,0.0749368891119957,0.02687162533402443,-9.730769157409668
1.729492472449993e+18,0.02848443016409874,0.02144177071750164,-9.803787231445312
1.7294924724589932e+18,0.06455057114362717,-0.0931340679526329,-9.862114906311035
1.7294924724649933e+18,-0.026853047311306,0.04023447260260582,-9.847394943237305
1.7294924724709934e+18,-0.0022460634354501963,0.049117665737867355,-9.824953079223633
1.7294924724799936e+18,0.004514109343290329,-0.0023063160479068756,-9.850716590881348
1.7294924724889938e+18,0.025272315368056297,-0.030476318672299385,-9.785069465637207
1.729492472494994e+18,0.03862056881189346,-0.011623676866292953,-9.817328453063965
1.729492472503994e+18,-0.058290425688028336,0.03468910604715347,-9.775166511535645
1.7294924725099942e+18,0.09518551081418991,0.026154978200793266,-9.790290832519531
1.7294924725189944e+18,0.0017164750024676323,-0.024414662271738052,-9.843262672424316
1.7294924725279946e+18,-0.0042307814583182335,0.018085261806845665,-9.864272117614746
1.7294924725339948e+18,-0.09592392295598984,0.033424071967601776,-9.820868492126465
1.729492472542995e+18,0.02545584738254547,0.032734520733356476,-9.82183837890625
1.729492472548995e+18,0.01365121454000473,-0.0021581940818578005,-9.838037490844727
1.7294924725579953e+18,0.036185767501592636,-0.006148050539195538,-9.781923294067383
1.7294924725639954e+18,-0.002195374807342887,0.10314104706048965,-9.781444549560547
1.7294924725699955e+18,0.011532402597367764,0.054625071585178375,-9.826333045959473
1.7294924725789957e+18,0.03128429502248764,-0.05619321018457413,-9.85739803314209
1.729492472587996e+18,-0.07764965295791626,-0.036999575793743134,-8.206896781921387
1.729492472596996e+18,0.07030364871025085,-0.019743362441658974,-7.790096282958984
1.7294924726029962e+18,-0.05093703791499138,-0.020118409767746925,-7.56859827041626
1.7294924726119964e+18,0.01895148493349552,-0.127375990152359,-7.523738861083984
1.7294924726209966e+18,-0.03156875818967819,-0.04642684385180473,-7.590053081512451
1.7294924726269967e+18,-0.0018311291933059692,-0.07614095509052277,-7.539633750915527
1.729492472635997e+18,0.006546441465616226,-0.0522136315703392,-7.650087356567383
1.729492472644997e+18,0.025585990399122238,-0.10208296775817871,-7.3761677742004395
1.7294924726509972e+18,0.09321197867393494,-0.027222920209169388,-7.333637237548828
1.7294924726599974e+18,-0.02352749928832054,0.06373323500156403,-7.139825344085693
1.7294924726659976e+18,0.06878555566072464,-0.05863017961382866,-6.990658283233643
1.7294924726749978e+18,0.08585573732852936,-0.06748391687870026,-7.0139031410217285
1.729492472683998e+18,0.07257040590047836,-0.033707600086927414,-7.091968059539795
1.729492472689998e+18,0.03301045298576355,-0.08416291326284409,-7.140848159790039
1.7294924726989983e+18,0.06267563998699188,-0.06546933203935623,-7.289632797241211
1.7294924727079985e+18,0.047766223549842834,-0.1380925178527832,-6.873742580413818
1.7294924727139986e+18,0.05633029341697693,-0.051421068608760834,-6.938347816467285
1.7294924727229988e+18,-0.0020569954067468643,-0.05175264924764633,-6.67936897277832
1.729492472731999e+18,-0.00942305475473404,-0.054295044392347336,-6.458117961883545
1.7294924727439992e+18,-0.08127902448177338,-0.025253985077142715,-6.599769592285156
1.7294924727619996e+18,-0.04182954877614975,-0.07422862946987152,-6.715276718139648
1.7294924727709998e+18,0.06263651698827744,0.006821185350418091,-6.606191635131836
1.72949247278e+18,-0.023378651589155197,-0.0005648620426654816,-6.781479358673096
1.7294924727860001e+18,-0.018731236457824707,-0.07012958824634552,-6.607095718383789
1.7294924727950003e+18,-0.06189633160829544,-0.08242270350456238,-6.593691349029541
1.7294924728010004e+18,-0.04357633367180824,-0.020309409126639366,-6.619884490966797
1.7294924728100006e+18,0.032064348459243774,0.014908161014318466,-6.739034175872803
1.7294924728190008e+18,0.023778552189469337,0.03251076489686966,-6.762995719909668
1.729492472828001e+18,0.026352066546678543,0.00538366474211216,-6.684992790222168
1.7294924728370012e+18,-0.01688665896654129,-0.03106784261763096,-6.7200140953063965
1.7294924728460014e+18,0.0242908988147974,0.06330326199531555,-6.885205268859863
1.7294924728580017e+18,-0.011270739138126373,-0.026102878153324127,-6.949056148529053
1.7294924728670019e+18,0.003842407837510109,0.04853707179427147,-6.976693153381348
1.729492472873002e+18,0.0063841198571026325,0.004847394302487373,-6.861315727233887
1.7294924728820022e+18,-0.05986085161566734,0.029876049607992172,-7.030612945556641
1.7294924728880023e+18,0.05138632655143738,-0.0041123321279883385,-6.89806604385376
1.7294924728970025e+18,-0.043144091963768005,-0.039777230471372604,-6.862808704376221
1.7294924729060027e+18,0.0640624612569809,0.012348871678113937,-6.879750728607178
1.7294924729120028e+18,0.002315368503332138,-0.04370146989822388,-6.9416375160217285
1.729492472921003e+18,0.011833034455776215,-0.06505460292100906,-7.066281318664551
1.7294924729300032e+18,-0.0383906252682209,-0.0056884633377194405,-6.209657192230225
1.7294924729360033e+18,0.0520564429461956,0.04442496597766876,-5.400522232055664
1.7294924729450035e+18,-0.01141844131052494,-0.0182172991335392,-5.202679634094238
1.7294924729540037e+18,-0.11137370765209198,-0.04704843461513519,-5.312464714050293
1.7294924729600038e+18,-0.008588237687945366,-0.04359382390975952,-5.3802618980407715
1.729492472969004e+18,-0.04595014825463295,0.003683745861053467,-5.413558483123779
1.7294924729750042e+18,0.0025332197546958923,0.11227245628833771,-5.479119300842285
1.7294924729840044e+18,-0.06912945955991745,-0.0298917256295681,-5.659228324890137
1.7294924729930045e+18,-0.06725285947322845,0.028271734714508057,-5.779178619384766
1.7294924729990047e+18,0.050809312611818314,0.03883407264947891,-5.925970077514648
1.7294924730080049e+18,-0.022919923067092896,-0.05229958891868591,-6.062910079956055
1.729492473017005e+18,-0.027758901938796043,-0.018136167898774147,-6.2521233558654785
1.7294924730260052e+18,0.02922489494085312,-0.05778982490301132,-6.29129695892334
1.7294924730350054e+18,0.025513596832752228,-0.011130467057228088,-6.485520362854004
1.7294924730440056e+18,-0.031414393335580826,-0.05406626686453819,-6.593918323516846
1.7294924730530058e+18,0.10332225263118744,0.08577414602041245,-6.644999027252197
1.729492473059006e+18,0.014609307050704956,-0.0607699379324913,-6.7236175537109375
1.7294924730680061e+18,0.0049033379182219505,-0.048278357833623886,-6.849366664886475
1.7294924730740063e+18,0.0076204268261790276,0.021023865789175034,-6.995241641998291
1.7294924730830065e+18,-0.025060728192329407,0.04072607681155205,-7.068255424499512
1.7294924730890066e+18,-0.060200028121471405,0.09396316856145859,-7.151509761810303
1.7294924730980068e+18,-0.007511603645980358,0.025445278733968735,-7.379552841186523
1.729492473107007e+18,-0.0661579817533493,0.010326220653951168,-7.3763837814331055
1.729492473113007e+18,0.07790957391262054,0.019795246422290802,-7.429835319519043
1.7294924731220073e+18,0.018442172557115555,-0.05309094116091728,-7.529848575592041
1.7294924731310075e+18,-0.009941566735506058,0.06995636969804764,-7.421492099761963
